/*--------------------------------*- C++ -*----------------------------------*\
  =========                 |
  \\      /  F ield         | OpenFOAM: The Open Source CFD Toolbox
   \\    /   O peration     | Website:  https://openfoam.org
    \\  /    A nd           | Version:  10
     \\/     M anipulation  |
\*---------------------------------------------------------------------------*/
FoamFile
{
    format      ascii;
    class       volScalarField;
    location    "4.5";
    object      ddt0(T);
}
// * * * * * * * * * * * * * * * * * * * * * * * * * * * * * * * * * * * * * //

dimensions      [0 0 -1 1 0 0 0];

internalField   nonuniform List<scalar> 
10000
(
6577.64
3195.52
3171.44
3224.21
3239.41
3243.12
3244.12
3244.45
3244.58
3244.65
3244.7
3244.75
3244.79
3244.83
3244.86
3244.89
3244.92
3244.95
3244.98
3245
3245.02
3245.04
3245.05
3245.07
3245.08
3245.09
3245.09
3245.1
3245.1
3245.11
3245.11
3245.11
3245.11
3245.11
3245.1
3245.1
3245.09
3245.09
3245.08
3245.07
3245.07
3245.06
3245.05
3245.04
3245.04
3245.03
3245.02
3245.01
3245.01
3245
3244.99
3244.98
3244.98
3244.97
3244.97
3244.96
3244.95
3244.95
3244.94
3244.94
3244.93
3244.93
3244.93
3244.92
3244.92
3244.92
3244.91
3244.91
3244.91
3244.91
3244.91
3244.9
3244.9
3244.9
3244.9
3244.9
3244.9
3244.9
3244.9
3244.89
3244.89
3244.89
3244.89
3244.89
3244.89
3244.89
3244.89
3244.89
3244.89
3244.89
3244.89
3244.89
3244.88
3244.87
3244.81
3244.48
3242.85
3236.2
3236.87
3771.39
3696.55
-763.757
-661.966
-528.795
-490.556
-481.139
-478.632
-477.825
-477.488
-477.294
-477.148
-477.02
-476.903
-476.793
-476.69
-476.594
-476.505
-476.423
-476.348
-476.28
-476.219
-476.165
-476.117
-476.076
-476.042
-476.013
-475.989
-475.971
-475.958
-475.95
-475.946
-475.946
-475.949
-475.956
-475.966
-475.978
-475.993
-476.01
-476.028
-476.048
-476.069
-476.091
-476.114
-476.137
-476.16
-476.184
-476.207
-476.23
-476.253
-476.275
-476.296
-476.317
-476.337
-476.356
-476.375
-476.392
-476.409
-476.424
-476.439
-476.453
-476.466
-476.478
-476.489
-476.499
-476.509
-476.517
-476.525
-476.533
-476.54
-476.546
-476.552
-476.557
-476.562
-476.566
-476.57
-476.574
-476.577
-476.58
-476.583
-476.586
-476.588
-476.591
-476.593
-476.595
-476.597
-476.599
-476.601
-476.603
-476.606
-476.608
-476.61
-476.614
-476.621
-476.645
-476.749
-477.251
-479.636
-489.568
-514.657
-411.607
3651.95
-699.119
-487.601
-311.53
-260.413
-247.421
-243.876
-242.713
-242.209
-241.906
-241.669
-241.46
-241.265
-241.083
-240.911
-240.751
-240.602
-240.465
-240.34
-240.226
-240.124
-240.034
-239.955
-239.886
-239.827
-239.779
-239.74
-239.709
-239.687
-239.673
-239.666
-239.665
-239.671
-239.682
-239.698
-239.718
-239.743
-239.77
-239.801
-239.834
-239.869
-239.906
-239.943
-239.982
-240.021
-240.06
-240.098
-240.137
-240.174
-240.211
-240.247
-240.281
-240.315
-240.347
-240.377
-240.406
-240.434
-240.46
-240.484
-240.507
-240.529
-240.549
-240.567
-240.584
-240.6
-240.615
-240.628
-240.641
-240.652
-240.663
-240.672
-240.681
-240.689
-240.696
-240.703
-240.709
-240.714
-240.719
-240.724
-240.729
-240.733
-240.737
-240.741
-240.744
-240.748
-240.751
-240.755
-240.758
-240.761
-240.765
-240.768
-240.773
-240.782
-240.804
-240.879
-241.19
-242.596
-248.599
-267.022
-254.189
3691.72
-588.994
-336.73
-144.645
-88.2004
-73.5146
-69.3949
-67.9939
-67.3567
-66.954
-66.631
-66.3414
-66.0717
-65.8182
-65.58
-65.3574
-65.1507
-64.9601
-64.7858
-64.6278
-64.4859
-64.3598
-64.2492
-64.1534
-64.0719
-64.0042
-63.9495
-63.9072
-63.8764
-63.8564
-63.8466
-63.8459
-63.8538
-63.8695
-63.892
-63.9208
-63.9549
-63.9939
-64.0368
-64.0831
-64.1322
-64.1833
-64.2361
-64.2899
-64.3443
-64.3988
-64.4531
-64.5067
-64.5594
-64.6109
-64.661
-64.7095
-64.7561
-64.8008
-64.8436
-64.8842
-64.9227
-64.959
-64.9932
-65.0253
-65.0553
-65.0832
-65.1092
-65.1332
-65.1555
-65.176
-65.1948
-65.2122
-65.228
-65.2426
-65.2558
-65.268
-65.2791
-65.2892
-65.2985
-65.307
-65.3148
-65.322
-65.3286
-65.3348
-65.3407
-65.3462
-65.3514
-65.3565
-65.3613
-65.3661
-65.3708
-65.3755
-65.3802
-65.3851
-65.3904
-65.397
-65.4074
-65.4285
-65.4796
-65.6251
-66.1447
-68.2449
-74.9005
-73.1152
3703.78
-556.957
-292.824
-95.5952
-37.1947
-21.7742
-17.3478
-15.7861
-15.0387
-14.5444
-14.1383
-13.7707
-13.4272
-13.1038
-12.8
-12.5159
-12.252
-12.0087
-11.7861
-11.5843
-11.4029
-11.2418
-11.1002
-10.9778
-10.8737
-10.7871
-10.7172
-10.6632
-10.6239
-10.5986
-10.5862
-10.5857
-10.5961
-10.6164
-10.6457
-10.6828
-10.7269
-10.7771
-10.8325
-10.8921
-10.9552
-11.0211
-11.089
-11.1582
-11.2281
-11.2982
-11.3679
-11.4369
-11.5046
-11.5708
-11.6352
-11.6974
-11.7573
-11.8148
-11.8697
-11.9218
-11.9713
-12.0179
-12.0618
-12.103
-12.1415
-12.1774
-12.2107
-12.2416
-12.2701
-12.2964
-12.3206
-12.3429
-12.3632
-12.3819
-12.3989
-12.4144
-12.4287
-12.4416
-12.4535
-12.4644
-12.4744
-12.4836
-12.4921
-12.5001
-12.5075
-12.5146
-12.5213
-12.5277
-12.5339
-12.54
-12.546
-12.552
-12.5581
-12.5642
-12.5709
-12.5787
-12.5902
-12.6113
-12.655
-12.7469
-12.9512
-13.5148
-14.9333
-14.0715
3706.8
-549.012
-281.643
-82.8153
-23.6975
-7.94464
-3.33922
-1.65767
-0.813736
-0.23324
0.253374
0.697177
1.11307
1.50491
1.87321
2.21759
2.53751
2.83254
3.10247
3.34729
3.56724
3.76274
3.93436
4.08285
4.20905
4.31391
4.39845
4.46376
4.51099
4.54129
4.55589
4.55599
4.54282
4.51759
4.48153
4.43582
4.38161
4.32006
4.25223
4.17918
4.1019
4.02132
3.93832
3.85371
3.76824
3.6826
3.5974
3.51319
3.43046
3.34964
3.27108
3.1951
3.12195
3.05183
2.98488
2.92121
2.86089
2.80395
2.75038
2.70016
2.65321
2.60947
2.56882
2.53116
2.49636
2.46428
2.43477
2.40768
2.38286
2.36015
2.3394
2.32044
2.30314
2.28733
2.27288
2.25965
2.24749
2.2363
2.22593
2.21628
2.20724
2.19871
2.19059
2.1828
2.17525
2.16788
2.1606
2.15337
2.14609
2.13869
2.13094
2.12223
2.11077
2.09174
2.05444
1.98166
1.85764
1.68367
1.60435
2.22031
3707.64
-546.87
-278.566
-79.201
-19.7867
-3.85653
0.872225
2.65333
3.58577
4.24869
4.81346
5.33166
5.81826
6.27699
6.70824
7.11149
7.48609
7.83153
8.14757
8.4342
8.69168
8.92049
9.1213
9.29497
9.44246
9.56489
9.66345
9.73942
9.79413
9.82895
9.84532
9.84464
9.82837
9.79795
9.75479
9.70031
9.63587
9.5628
9.48238
9.39585
9.30437
9.20903
9.11088
9.01087
8.90987
8.8087
8.70807
8.60864
8.51098
8.41558
8.32288
8.23323
8.14692
8.0642
7.98523
7.91014
7.839
7.77186
7.7087
7.64948
7.59414
7.54257
7.49466
7.45028
7.40927
7.37146
7.33669
7.30478
7.27555
7.24881
7.22437
7.20206
7.1817
7.1631
7.14611
7.13056
7.11628
7.10314
7.09097
7.07966
7.06907
7.05909
7.04959
7.04048
7.03166
7.02305
7.01457
7.00613
6.99767
6.9891
6.98029
6.9709
6.95988
6.94415
6.91602
6.86122
6.76627
6.65583
6.72873
7.20293
3707.93
-546.163
-277.533
-77.9426
-18.3716
-2.32263
2.50558
4.37606
5.39203
6.13436
6.77497
7.36554
7.92094
8.44474
8.9372
9.39764
9.82532
10.2197
10.5804
10.9075
11.2012
11.4622
11.6911
11.8889
12.0568
12.1959
12.3078
12.3937
12.4553
12.494
12.5117
12.5098
12.4901
12.4541
12.4036
12.3401
12.2652
12.1804
12.0873
11.9872
11.8815
11.7713
11.658
11.5426
11.4261
11.3094
11.1934
11.0788
10.9663
10.8564
10.7496
10.6463
10.547
10.4517
10.3608
10.2744
10.1925
10.1152
10.0426
9.97442
9.91075
9.85143
9.79633
9.74528
9.69812
9.65465
9.61468
9.57799
9.54439
9.51366
9.48559
9.45997
9.43659
9.41525
9.39576
9.37793
9.36157
9.34652
9.3326
9.31967
9.30758
9.29618
9.28535
9.27498
9.26494
9.25515
9.24551
9.23593
9.22634
9.21665
9.20678
9.19656
9.18551
9.17205
9.15147
9.11263
9.03769
8.92538
8.91923
9.39409
3708.05
-545.854
-277.066
-77.3462
-17.666
-1.52074
3.39609
5.35023
6.44614
7.26513
7.9792
8.63992
9.26199
9.84883
10.4005
10.9163
11.3952
11.8368
12.2405
12.6066
12.9352
13.2269
13.4827
13.7036
13.8908
14.0457
14.1699
14.2651
14.3328
14.3749
14.3933
14.3897
14.366
14.3242
14.2659
14.1932
14.1076
14.011
13.9051
13.7913
13.6712
13.5462
13.4177
13.2869
13.1549
13.0228
12.8914
12.7617
12.6344
12.51
12.3893
12.2725
12.1602
12.0525
11.9497
11.852
11.7595
11.6722
11.5901
11.5132
11.4412
11.3742
11.312
11.2544
11.2011
11.1521
11.1069
11.0655
11.0276
10.993
10.9613
10.9324
10.9061
10.8821
10.8601
10.84
10.8216
10.8047
10.7891
10.7746
10.7611
10.7483
10.7362
10.7246
10.7134
10.7025
10.6918
10.6811
10.6705
10.6597
10.6488
10.6376
10.626
10.6133
10.5969
10.5688
10.5086
10.3868
10.2822
10.8578
3708.11
-545.667
-276.772
-76.9534
-17.1816
-0.949735
4.04993
6.08379
7.25653
8.14947
8.93446
9.66291
10.3493
10.9969
11.6057
12.1746
12.7029
13.1897
13.6348
14.0381
14.4
14.7211
15.0024
15.2451
15.4504
15.6201
15.7558
15.8592
15.9323
15.9771
15.9955
15.9897
15.9617
15.9135
15.8473
15.765
15.6685
15.5599
15.4409
15.3133
15.1788
15.039
14.8952
14.749
14.6016
14.454
14.3074
14.1627
14.0206
13.8819
13.7473
13.6171
13.4919
13.3719
13.2574
13.1486
13.0455
12.9483
12.8568
12.7711
12.691
12.6165
12.5472
12.483
12.4238
12.3692
12.319
12.2729
12.2308
12.1923
12.1571
12.125
12.0957
12.069
12.0447
12.0224
12.0021
11.9833
11.9661
11.9501
11.9351
11.9211
11.9077
11.895
11.8827
11.8707
11.859
11.8473
11.8357
11.8239
11.812
11.7999
11.7875
11.7745
11.7598
11.7377
11.6875
11.5581
11.3653
12.0837
3708.16
-545.522
-276.537
-76.6305
-16.7749
-0.461761
4.6167
6.72693
7.9735
8.93756
9.79076
10.5843
11.3325
12.0384
12.7019
13.3218
13.8972
14.4273
14.9117
15.3504
15.7439
16.0928
16.3982
16.6613
16.8836
17.0669
17.2129
17.3238
17.4014
17.4481
17.466
17.4573
17.4244
17.3695
17.2949
17.2027
17.0951
16.9742
16.842
16.7006
16.5516
16.3968
16.2378
16.0762
15.9134
15.7504
15.5886
15.4289
15.2723
15.1194
14.9709
14.8275
14.6894
14.5572
14.4311
14.3113
14.1978
14.0907
13.99
13.8957
13.8076
13.7255
13.6493
13.5787
13.5135
13.4535
13.3983
13.3477
13.3013
13.259
13.2204
13.1851
13.153
13.1237
13.097
13.0727
13.0504
13.0299
13.011
12.9935
12.9772
12.962
12.9475
12.9337
12.9204
12.9074
12.8947
12.8821
12.8696
12.8569
12.8441
12.8311
12.8178
12.8042
12.7898
12.7707
12.7272
12.5933
12.3254
13.1894
3708.21
-545.393
-276.325
-76.3375
-16.4027
-0.0123801
5.14136
7.3247
8.64201
9.67421
10.5927
11.4485
12.2558
13.0174
13.733
14.4015
15.0217
15.5928
16.1145
16.5868
17.01
17.385
17.7129
17.995
18.2329
18.4286
18.584
18.7012
18.7825
18.8303
18.8469
18.8348
18.7965
18.7344
18.6509
18.5485
18.4295
18.2962
18.1507
17.9952
17.8316
17.6619
17.4877
17.3107
17.1325
16.9542
16.7773
16.6028
16.4316
16.2646
16.1024
15.9458
15.7952
15.6509
15.5133
15.3825
15.2587
15.1419
15.0322
14.9293
14.8332
14.7438
14.6607
14.5838
14.5128
14.4474
14.3873
14.3322
14.2817
14.2356
14.1936
14.1553
14.1204
14.0886
14.0596
14.0332
14.009
13.9868
13.9664
13.9475
13.93
13.9135
13.8979
13.8831
13.8689
13.855
13.8414
13.828
13.8146
13.8012
13.7875
13.7737
13.7596
13.7453
13.7307
13.7129
13.6738
13.538
13.2099
14.202
3708.25
-545.273
-276.127
-76.0626
-16.0527
0.411303
5.63686
7.88999
9.27479
10.372
11.3527
12.2678
13.1312
13.9457
14.7108
15.4253
16.0878
16.6977
17.2545
17.7583
18.2093
18.6086
18.9573
19.2569
19.5091
19.7159
19.8794
20.0019
20.086
20.134
20.1486
20.1325
20.0882
20.0184
19.9257
19.8128
19.6821
19.536
19.3771
19.2074
19.0292
18.8445
18.6551
18.4628
18.2691
18.0757
17.8837
17.6944
17.5088
17.3278
17.1522
16.9825
16.8194
16.6632
16.5142
16.3727
16.2387
16.1124
15.9936
15.8824
15.7785
15.6817
15.5919
15.5088
15.432
15.3614
15.2964
15.2369
15.1824
15.1327
15.0873
15.046
15.0083
14.9741
14.9429
14.9144
14.8885
14.8647
14.8428
14.8226
14.8038
14.7862
14.7696
14.7539
14.7387
14.7241
14.7097
14.6955
14.6814
14.6673
14.6529
14.6384
14.6236
14.6086
14.5935
14.5763
14.5402
14.4046
14.0321
15.1263
3708.29
-545.16
-275.939
-75.8028
-15.7214
0.812546
6.10637
8.42579
9.87468
11.0335
12.0732
13.0445
13.961
14.8255
15.6373
16.395
17.0974
17.7436
18.3332
18.8663
19.3432
19.7649
20.1327
20.4482
20.7131
20.9297
21.1002
21.227
21.3128
21.3602
21.3721
21.3511
21.3003
21.2223
21.12
20.9962
20.8535
20.6946
20.522
20.338
20.1451
19.9453
19.7407
19.5331
19.3242
19.1156
18.9087
18.7048
18.5049
18.31
18.121
17.9385
17.763
17.595
17.4348
17.2827
17.1387
17.0029
16.8753
16.7558
16.6442
16.5403
16.4439
16.3546
16.2723
16.1964
16.1267
16.0629
16.0045
15.9512
15.9025
15.8583
15.818
15.7813
15.748
15.7176
15.6899
15.6645
15.6412
15.6197
15.5998
15.5812
15.5637
15.547
15.5311
15.5157
15.5007
15.4858
15.4711
15.4563
15.4414
15.4262
15.4108
15.3952
15.3796
15.3626
15.3286
15.1946
14.7936
15.9617
3708.32
-545.054
-275.763
-75.5574
-15.4084
1.19172
6.55011
8.93221
10.4416
11.6586
12.754
13.7781
14.7446
15.656
16.5115
17.3097
18.0493
18.7294
19.3494
19.9096
20.4103
20.8525
21.2377
21.5674
21.8436
22.0685
22.2447
22.3747
22.4612
22.5071
22.5154
22.4891
22.431
22.3444
22.232
22.097
21.942
21.77
21.5836
21.3853
21.1776
20.9628
20.7429
20.52
20.296
20.0723
19.8506
19.6322
19.4182
19.2096
19.0073
18.812
18.6244
18.4448
18.2735
18.1109
17.9571
17.8121
17.6758
17.5481
17.429
17.3181
17.2151
17.1199
17.032
16.9511
16.8767
16.8087
16.7464
16.6896
16.6378
16.5907
16.5478
16.5088
16.4734
16.4411
16.4117
16.3848
16.3602
16.3375
16.3165
16.2969
16.2786
16.2612
16.2445
16.2285
16.2128
16.1974
16.1821
16.1668
16.1514
16.1358
16.1199
16.1038
16.0877
16.0707
16.0383
15.9071
15.492
16.7067
3708.36
-544.954
-275.597
-75.3266
-15.114
1.54842
6.96755
9.40856
10.9749
12.2464
13.3939
14.4676
15.4808
16.4359
17.3322
18.168
18.9421
19.6534
20.3015
20.8864
21.4088
21.8696
22.2702
22.6125
22.8984
23.1304
23.311
23.443
23.5292
23.5727
23.5767
23.5442
23.4784
23.3825
23.2597
23.1131
22.9456
22.7603
22.5599
22.3471
22.1246
21.8947
21.6596
21.4216
21.1824
20.9438
20.7074
20.4746
20.2466
20.0245
19.8091
19.6013
19.4016
19.2106
19.0285
18.8556
18.6921
18.5379
18.3931
18.2575
18.1309
18.0131
17.9038
17.8027
17.7094
17.6235
17.5447
17.4724
17.4064
17.3462
17.2913
17.2414
17.196
17.1548
17.1173
17.0833
17.0522
17.0239
16.998
16.9742
16.9522
16.9317
16.9126
16.8945
16.8772
16.8606
16.8444
16.8285
16.8128
16.7971
16.7813
16.7653
16.749
16.7326
16.7162
16.699
16.6678
16.5407
16.1237
17.3603
3708.39
-544.861
-275.442
-75.1108
-14.8387
1.88208
7.35802
9.8541
11.4735
12.796
13.9921
15.1117
16.1683
17.164
18.098
18.9685
19.7743
20.5142
21.1879
21.7954
22.3372
22.8146
23.2289
23.582
23.876
24.1136
24.2973
24.4302
24.5151
24.5553
24.5541
24.5147
24.4406
24.335
24.2013
24.0428
23.8625
23.6636
23.4491
23.2218
22.9844
22.7395
22.4893
22.2361
21.9818
21.7285
21.4775
21.2305
20.9887
20.7532
20.525
20.3048
20.0933
19.891
19.6982
19.5152
19.3422
19.1791
19.0259
18.8824
18.7486
18.624
18.5085
18.4016
18.303
18.2123
18.129
18.0528
17.9831
17.9195
17.8617
17.809
17.7612
17.7178
17.6784
17.6426
17.6101
17.5804
17.5533
17.5284
17.5055
17.4842
17.4643
17.4455
17.4277
17.4106
17.394
17.3778
17.3617
17.3457
17.3297
17.3134
17.2969
17.2802
17.2636
17.2464
17.2162
17.0941
16.6853
17.9223
3708.42
-544.774
-275.297
-74.9103
-14.5827
2.19229
7.72104
10.2683
11.9369
13.3066
14.5476
15.7098
16.8064
17.8395
18.808
19.7103
20.5449
21.3108
22.0076
22.6353
23.1945
23.6863
24.1124
24.4746
24.7753
25.017
25.2026
25.3351
25.4177
25.4537
25.4465
25.3996
25.3166
25.2008
25.0558
24.885
24.6916
24.4791
24.2503
24.0084
23.7561
23.4961
23.2308
22.9625
22.6934
22.4253
22.16
21.8989
21.6435
21.3948
21.1539
20.9216
20.6984
20.4851
20.2818
20.0889
19.9065
19.7346
19.5732
19.4222
19.2812
19.1501
19.0284
18.9159
18.8122
18.7167
18.6291
18.549
18.4757
18.4089
18.3481
18.2929
18.2427
18.1972
18.1559
18.1185
18.0845
18.0535
18.0252
17.9994
17.9756
17.9535
17.933
17.9137
17.8954
17.8778
17.8609
17.8444
17.8281
17.8119
17.7957
17.7793
17.7627
17.7459
17.7291
17.7119
17.6828
17.5665
17.1741
18.3933
3708.44
-544.694
-275.164
-74.7251
-14.3463
2.4788
8.05631
10.6507
12.3647
13.7779
15.0601
16.2614
17.3945
18.4617
19.4617
20.3928
21.2535
22.0427
22.7601
23.4056
23.9799
24.4843
24.9203
25.2899
25.5957
25.8401
26.0263
26.1573
26.2365
26.2674
26.2535
26.1984
26.1058
25.9793
25.8226
25.6392
25.4326
25.2061
24.9631
24.7064
24.4392
24.1642
23.8839
23.6007
23.3168
23.0342
22.7546
22.4797
22.2108
21.9492
21.6958
21.4515
21.2169
20.9927
20.7791
20.5765
20.385
20.2045
20.0351
19.8766
19.7286
19.5911
19.4635
19.3455
19.2367
19.1367
19.0449
18.9609
18.8842
18.8142
18.7506
18.6928
18.6404
18.5929
18.5498
18.5108
18.4753
18.4431
18.4138
18.387
18.3624
18.3397
18.3185
18.2987
18.28
18.2622
18.245
18.2283
18.2119
18.1956
18.1793
18.1629
18.1462
18.1295
18.1127
18.0956
18.0675
17.9579
17.5878
18.7743
3708.47
-544.621
-275.042
-74.5553
-14.1296
2.74157
8.36378
11.0014
12.7569
14.2097
15.5296
16.7663
17.9327
19.0307
20.059
21.016
21.9
22.7099
23.4454
24.1064
24.6937
25.2086
25.6526
26.028
26.3372
26.583
26.7685
26.8969
26.9717
26.9966
26.9751
26.9112
26.8085
26.6709
26.5022
26.3059
26.0858
25.8452
25.5877
25.3164
25.0343
24.7442
24.449
24.151
23.8524
23.5554
23.2618
22.9732
22.6911
22.4167
22.1511
21.895
21.6493
21.4144
21.1908
20.9787
20.7782
20.5893
20.4121
20.2462
20.0915
19.9477
19.8143
19.691
19.5773
19.4728
19.3769
19.2892
19.2091
19.1361
19.0698
19.0096
18.9549
18.9055
18.8607
18.8201
18.7833
18.75
18.7196
18.692
18.6666
18.6433
18.6216
18.6014
18.5824
18.5643
18.5469
18.5301
18.5136
18.4973
18.481
18.4647
18.4482
18.4315
18.4149
18.398
18.371
18.2686
17.925
19.0674
3708.49
-544.554
-274.931
-74.4008
-13.9322
2.98078
8.64365
11.3205
13.1137
14.6024
15.9563
17.225
18.4212
19.5468
20.6005
21.5803
22.4848
23.3128
24.0639
24.7382
25.3364
25.8597
26.31
26.6895
27.0006
27.2464
27.4299
27.5546
27.6241
27.6421
27.6124
27.539
27.4257
27.2765
27.0953
26.8859
26.652
26.3973
26.1253
25.8392
25.5422
25.2373
24.9272
24.6145
24.3014
23.9903
23.6828
23.3808
23.0857
22.7987
22.521
22.2534
21.9967
21.7515
21.518
21.2966
21.0874
20.8903
20.7054
20.5324
20.3711
20.2212
20.0821
19.9536
19.8352
19.7263
19.6265
19.5352
19.4518
19.3759
19.3069
19.2443
19.1876
19.1363
19.0898
19.0478
19.0098
18.9753
18.944
18.9155
18.8895
18.8656
18.8435
18.823
18.8037
18.7854
18.7679
18.751
18.7346
18.7184
18.7022
18.6861
18.6698
18.6534
18.637
18.6203
18.5945
18.4996
18.1853
19.275
3708.51
-544.494
-274.831
-74.2614
-13.7541
3.19676
8.8963
11.6085
13.4356
14.9565
16.3408
17.638
18.8608
20.0108
21.0867
22.0866
23.0089
23.8524
24.6167
25.302
25.9089
26.4389
26.8936
27.2755
27.5871
27.8315
28.0119
28.1318
28.195
28.2053
28.1667
28.0831
27.9587
27.7975
27.6036
27.3808
27.133
26.864
26.5774
26.2766
25.9647
25.645
25.3202
24.9929
24.6656
24.3404
24.0193
23.7041
23.3962
23.0969
22.8074
22.5286
22.2612
22.0057
21.7626
21.5321
21.3144
21.1094
20.917
20.7371
20.5694
20.4135
20.2689
20.1354
20.0124
19.8993
19.7956
19.7008
19.6143
19.5355
19.464
19.3991
19.3404
19.2872
19.2392
19.1958
19.1565
19.121
19.0889
19.0597
19.033
19.0086
18.9862
18.9653
18.9458
18.9274
18.9099
18.8931
18.8767
18.8606
18.8447
18.8288
18.8128
18.7967
18.7807
18.7644
18.7398
18.6527
18.3689
19.4
3708.53
-544.441
-274.741
-74.1366
-13.5946
3.39002
9.12232
11.866
13.7232
15.2727
16.684
18.0064
19.2524
20.4237
21.519
22.5361
23.4735
24.33
25.1052
25.7993
26.4129
26.9476
27.4051
27.7878
28.0984
28.3401
28.5162
28.6304
28.6863
28.6881
28.6399
28.5456
28.4097
28.2361
28.0291
27.7927
27.5309
27.2475
26.9463
26.6307
26.3042
25.9697
25.6303
25.2887
24.9472
24.6083
24.2738
23.9455
23.6251
23.3138
23.0127
22.7229
22.445
22.1796
21.9271
21.6878
21.4617
21.249
21.0494
20.8627
20.6887
20.527
20.3772
20.2388
20.1112
19.994
19.8867
19.7885
19.6989
19.6175
19.5435
19.4764
19.4157
19.3608
19.3113
19.2665
19.2262
19.1897
19.1567
19.1268
19.0996
19.0748
19.052
19.0309
19.0113
18.9928
18.9753
18.9586
18.9424
18.9265
18.9109
18.8953
18.8797
18.864
18.8484
18.8326
18.8092
18.7299
18.477
19.4459
3708.54
-544.393
-274.662
-74.026
-13.4534
3.56119
9.32243
12.0939
13.9776
15.5522
16.987
18.3312
19.5974
20.787
21.8986
22.9303
23.8802
24.7473
25.5311
26.2318
26.8502
27.3878
27.8463
28.2284
28.5367
28.7745
28.9452
29.0525
29.1004
29.093
29.0345
28.929
28.781
28.5947
28.3744
28.1242
27.8483
27.5505
27.2347
26.9044
26.5632
26.2141
25.8603
25.5045
25.1492
24.7966
24.449
24.108
23.7753
23.4522
23.1398
22.8392
22.5511
22.276
22.0144
21.7665
21.5324
21.312
21.1054
20.9122
20.7322
20.5649
20.4099
20.2667
20.1348
20.0137
19.9027
19.8013
19.7088
19.6247
19.5483
19.4791
19.4165
19.36
19.309
19.2631
19.2216
19.1842
19.1505
19.1199
19.0922
19.067
19.0439
19.0227
19.0029
18.9845
18.9671
18.9505
18.9345
18.9189
18.9037
18.8885
18.8734
18.8582
18.8431
18.8277
18.8057
18.7339
18.5111
19.4164
3708.56
-544.352
-274.593
-73.9292
-13.3297
3.71101
9.49749
12.2932
14.1999
15.7961
17.2511
18.614
19.8972
21.1022
22.2275
23.271
24.231
25.1063
25.8965
26.6019
27.2231
27.7618
28.2199
28.5998
28.9044
29.1371
29.3013
29.401
29.44
29.4227
29.3533
29.2362
29.0758
28.8765
28.6426
28.3785
28.0883
27.776
27.4456
27.1008
26.745
26.3815
26.0135
25.6437
25.2747
24.9088
24.5482
24.1948
23.85
23.5154
23.1921
22.881
22.5829
22.2984
22.0279
21.7716
21.5296
21.302
21.0885
20.889
20.7031
20.5303
20.3704
20.2226
20.0865
19.9616
19.8471
19.7425
19.6472
19.5606
19.4819
19.4107
19.3464
19.2883
19.2359
19.1887
19.1463
19.108
19.0736
19.0425
19.0143
18.9887
18.9654
18.944
18.9243
18.9059
18.8886
18.8722
18.8565
18.8413
18.8264
18.8117
18.7971
18.7825
18.7679
18.7532
18.7325
18.668
18.4739
19.3155
3708.57
-544.316
-274.533
-73.8456
-13.2229
3.84033
9.6485
12.4649
14.3911
16.0057
17.4778
18.8563
20.1537
21.3713
22.5075
23.5603
24.528
25.4093
26.2039
26.9119
27.5342
28.0723
28.5283
28.9047
29.2045
29.431
29.5878
29.6789
29.7083
29.6804
29.5997
29.4704
29.2972
29.0846
28.8371
28.5589
28.2544
27.9277
27.5828
27.2234
26.8532
26.4755
26.0934
25.7098
25.3274
24.9485
24.5753
24.2096
23.8531
23.5073
23.1732
22.8519
22.5441
22.2505
21.9713
21.7069
21.4574
21.2226
21.0025
20.7969
20.6052
20.4273
20.2625
20.1103
19.9702
19.8415
19.7237
19.6161
19.5181
19.429
19.3481
19.275
19.2089
19.1493
19.0956
19.0474
19.0039
18.9649
18.9298
18.8981
18.8696
18.8437
18.8202
18.7987
18.779
18.7606
18.7435
18.7274
18.712
18.6972
18.6827
18.6686
18.6545
18.6406
18.6267
18.6126
18.5932
18.5356
18.3684
19.1476
3708.58
-544.285
-274.482
-73.7746
-13.1322
3.95006
9.7765
12.6102
14.5529
16.1827
17.6687
19.06
20.3687
21.5961
22.7408
23.8005
24.7736
25.6588
26.4557
27.1645
27.7862
28.3223
28.7748
29.1464
29.4401
29.6593
29.8078
29.8895
29.9087
29.8697
29.777
29.6353
29.449
29.2229
28.9615
28.6692
28.3503
28.0092
27.6499
27.2762
26.8917
26.4999
26.104
25.7069
25.3114
24.9197
24.5341
24.1565
23.7886
23.4318
23.0873
22.7561
22.4389
22.1363
21.8488
21.5765
21.3196
21.078
20.8515
20.6399
20.4428
20.2597
20.0903
19.9338
19.7898
19.6576
19.5366
19.4261
19.3254
19.234
19.151
19.076
19.0083
18.9473
18.8924
18.843
18.7987
18.7589
18.7231
18.691
18.6621
18.636
18.6123
18.5908
18.5711
18.5529
18.536
18.5201
18.5051
18.4907
18.4768
18.4632
18.4497
18.4364
18.4233
18.4099
18.3918
18.3406
18.198
18.9172
3708.59
-544.26
-274.439
-73.7155
-13.0569
4.04117
9.88264
12.7306
14.6865
16.3285
17.8257
19.2269
20.5442
21.7791
22.9297
23.9941
24.9704
25.8575
26.6548
27.3628
27.9822
28.5147
28.9625
29.3281
29.6146
29.8257
29.9649
30.0366
30.0448
29.9942
29.8892
29.7346
29.5351
29.2953
29.0199
28.7134
28.3803
28.0248
27.6512
27.2632
26.8647
26.4591
26.0496
25.6393
25.2308
24.8266
24.429
24.0398
23.6607
23.2933
22.9386
22.5978
22.2715
21.9603
21.6646
21.3848
21.1207
20.8725
20.6398
20.4225
20.2201
20.0321
19.8582
19.6976
19.5499
19.4143
19.2901
19.1768
19.0736
18.9799
18.895
18.8182
18.7489
18.6865
18.6304
18.58
18.5348
18.4943
18.458
18.4255
18.3962
18.3699
18.3461
18.3246
18.3049
18.2869
18.2702
18.2547
18.2401
18.2261
18.2127
18.1997
18.187
18.1744
18.1619
18.1493
18.1326
18.0872
17.9669
18.6289
3708.6
-544.24
-274.405
-73.6678
-12.9959
4.1147
9.96813
12.8273
14.7935
16.445
17.9506
19.359
20.6826
21.9224
23.0768
24.1437
25.1212
26.0082
26.8043
27.5097
28.1254
28.653
29.0947
29.4532
29.7317
29.9336
30.0629
30.1238
30.1206
30.0579
29.9403
29.7726
29.5596
29.306
29.0165
28.6958
28.3485
27.9788
27.5909
27.189
26.7766
26.3574
25.9346
25.5113
25.0902
24.6738
24.2644
23.8639
23.4741
23.0963
22.7318
22.3816
22.0464
21.7269
21.4234
21.1362
20.8653
20.6106
20.372
20.1491
19.9416
19.749
19.5707
19.4062
19.2548
19.1159
18.9888
18.8728
18.7672
18.6714
18.5845
18.506
18.4352
18.3715
18.3143
18.263
18.217
18.1758
18.139
18.106
18.0764
18.0499
18.0261
18.0046
17.985
17.9672
17.9508
17.9356
17.9214
17.9079
17.8951
17.8827
17.8706
17.8588
17.8471
17.8353
17.8199
17.7799
17.6794
18.2875
3708.6
-544.224
-274.378
-73.6306
-12.9486
4.17169
10.0342
12.9018
14.8756
16.5338
18.0453
19.4586
20.7859
22.0285
23.1845
24.2519
25.2288
26.1141
26.9072
27.6086
28.2192
28.7406
29.1751
29.5255
29.7949
29.987
30.1057
30.1553
30.1402
30.0649
29.9344
29.7534
29.5267
29.2592
28.9557
28.6209
28.2594
27.8756
27.4737
27.0579
26.6319
26.1994
25.7636
25.3276
24.8942
24.466
24.0451
23.6336
23.2333
22.8454
22.4714
22.1122
21.7685
21.4409
21.1299
20.8355
20.558
20.2972
20.0528
19.8246
19.6122
19.4151
19.2326
19.0643
18.9095
18.7674
18.6375
18.5189
18.411
18.313
18.2243
18.1442
18.072
18.0071
17.9488
17.8965
17.8498
17.808
17.7706
17.7373
17.7075
17.6808
17.6569
17.6354
17.616
17.5984
17.5823
17.5674
17.5536
17.5407
17.5285
17.5167
17.5053
17.4943
17.4834
17.4725
17.4583
17.4232
17.3401
17.8977
3708.6
-544.212
-274.359
-73.6033
-12.914
4.21325
10.0822
12.9555
14.9344
16.5969
18.1118
19.5277
20.8567
22.0999
23.2556
24.3217
25.2962
26.178
26.9668
27.6627
28.2669
28.7811
29.2074
29.5487
29.8083
29.9899
30.0974
30.1351
30.1076
30.0196
29.8759
29.6813
29.4409
29.1595
28.8419
28.4931
28.1175
27.7198
27.3042
26.8748
26.4354
25.9898
25.5413
25.0929
24.6476
24.2078
23.7758
23.3537
22.9431
22.5456
22.1623
21.7944
21.4424
21.1071
20.7888
20.4876
20.2037
19.9369
19.687
19.4537
19.2366
19.0351
18.8487
18.6768
18.5186
18.3735
18.2408
18.1198
18.0097
17.9097
17.8193
17.7376
17.6641
17.5979
17.5386
17.4855
17.438
17.3956
17.3578
17.3241
17.2941
17.2673
17.2434
17.2219
17.2026
17.1852
17.1694
17.155
17.1416
17.1292
17.1176
17.1065
17.0958
17.0855
17.0755
17.0654
17.0525
17.0218
16.9537
17.4646
3708.61
-544.204
-274.346
-73.5852
-12.8911
4.24048
10.1133
12.9899
14.9715
16.6361
18.1522
19.5686
20.8972
22.1392
23.2927
24.3557
25.3263
26.2032
26.9862
27.6755
28.2722
28.778
29.1952
29.5267
29.7758
29.9461
30.0419
30.0674
30.0272
29.9261
29.769
29.5609
29.3066
29.0113
28.6799
28.3171
27.9276
27.5162
27.087
26.6442
26.1918
25.7334
25.2725
24.8121
24.3551
23.9041
23.4613
23.0289
22.6085
22.2016
21.8094
21.433
21.0732
20.7303
20.405
20.0973
19.8072
19.5347
19.2795
19.0413
18.8197
18.6141
18.4238
18.2484
18.087
17.9391
17.8038
17.6804
17.5681
17.4663
17.3742
17.291
17.2162
17.1489
17.0886
17.0347
16.9865
16.9436
16.9054
16.8714
16.8411
16.8142
16.7902
16.7689
16.7497
16.7326
16.7171
16.703
16.6901
16.6782
16.6672
16.6567
16.6468
16.6373
16.6281
16.6188
16.6072
16.5804
16.5253
16.993
3708.61
-544.2
-274.339
-73.5756
-12.8791
4.25451
10.1289
13.0066
14.9888
16.6532
18.1686
19.5835
20.9099
22.1488
23.2986
24.357
25.3221
26.1929
26.9689
27.6504
28.2386
28.7351
29.1424
29.4633
29.7012
29.8599
29.9435
29.9564
29.9033
29.789
29.6184
29.3965
29.1285
28.8193
28.474
28.0975
27.6944
27.2694
26.8269
26.371
25.9059
25.4351
24.962
24.4899
24.0216
23.5597
23.1066
22.6642
22.2342
21.8183
21.4176
21.0331
20.6655
20.3155
19.9834
19.6694
19.3734
19.0955
18.8352
18.5923
18.3664
18.1567
17.9629
17.7841
17.6197
17.469
17.3312
17.2055
17.0912
16.9876
16.8939
16.8093
16.7332
16.6649
16.6037
16.549
16.5002
16.4567
16.4181
16.3838
16.3533
16.3263
16.3024
16.2811
16.2621
16.2452
16.23
16.2163
16.2039
16.1925
16.182
16.1722
16.163
16.1543
16.1459
16.1376
16.1271
16.1038
16.0597
16.4876
3708.61
-544.2
-274.337
-73.5737
-12.8771
4.25644
10.1303
13.0071
14.9878
16.6502
18.163
19.5746
20.8971
22.1315
23.276
24.3284
25.2868
26.1502
26.918
27.5908
28.1695
28.656
29.0527
29.3624
29.5887
29.7352
29.8063
29.8064
29.7401
29.6124
29.4282
29.1927
28.911
28.5881
28.2291
27.8389
27.4224
26.9841
26.5286
26.06
25.5824
25.0994
24.6147
24.1312
23.652
23.1796
22.7164
22.2643
21.8252
21.4006
20.9916
20.5993
20.2244
19.8675
19.5289
19.2088
18.9072
18.624
18.3589
18.1116
17.8814
17.668
17.4706
17.2887
17.1214
16.968
16.8278
16.7
16.5838
16.4785
16.3832
16.2973
16.22
16.1507
16.0886
16.0332
15.9837
15.9398
15.9008
15.8662
15.8356
15.8085
15.7845
15.7633
15.7445
15.7278
15.7129
15.6996
15.6877
15.6768
15.6669
15.6578
15.6493
15.6413
15.6337
15.6262
15.6169
15.5968
15.5619
15.9533
3708.61
-544.202
-274.341
-73.5789
-12.884
4.24738
10.1188
12.9928
14.9703
16.6289
18.1375
19.5443
20.8614
22.0898
23.2276
24.2728
25.2234
26.0783
26.837
27.5001
28.0687
28.5444
28.9298
29.2279
29.442
29.5761
29.6344
29.6214
29.5419
29.4007
29.203
28.9539
28.6585
28.322
27.9495
27.546
27.1162
26.665
26.1968
25.7158
25.226
24.7313
24.2352
23.7407
23.2509
22.7684
22.2954
21.8341
21.3862
20.9532
20.5363
20.1365
19.7545
19.391
19.0462
18.7204
18.4134
18.1252
17.8554
17.6038
17.3697
17.1526
16.9519
16.7669
16.5969
16.441
16.2985
16.1687
16.0506
15.9437
15.8469
15.7597
15.6813
15.611
15.5481
15.492
15.442
15.3975
15.3582
15.3233
15.2925
15.2653
15.2414
15.2203
15.2016
15.1852
15.1706
15.1577
15.1461
15.1358
15.1265
15.118
15.1102
15.1029
15.0961
15.0895
15.0813
15.064
15.0368
15.3947
3708.61
-544.207
-274.349
-73.5904
-12.8992
4.22845
10.0958
12.9653
14.9379
16.5913
18.094
19.4946
20.805
22.0261
23.1562
24.193
25.1347
25.9802
26.7291
27.3818
27.9394
28.4039
28.7776
29.0635
29.2652
29.3866
29.4319
29.4057
29.3129
29.1582
28.947
28.6844
28.3755
28.0256
27.6399
27.2232
26.7806
26.3167
25.836
25.3429
24.8414
24.3354
23.8282
23.3231
22.8231
22.3308
21.8485
21.3782
20.9218
20.4808
20.0563
19.6493
19.2606
18.8908
18.5401
18.2087
17.8965
17.6035
17.3294
17.0736
16.8358
16.6152
16.4114
16.2235
16.0508
15.8925
15.7479
15.6161
15.4963
15.3877
15.2896
15.2012
15.1218
15.0505
14.9868
14.93
14.8794
14.8346
14.7948
14.7597
14.7288
14.7015
14.6776
14.6565
14.6381
14.6218
14.6076
14.595
14.5839
14.574
14.5653
14.5574
14.5502
14.5437
14.5377
14.5319
14.5248
14.51
14.4892
14.8164
3708.6
-544.214
-274.361
-73.6076
-12.9215
4.2007
10.0624
12.9259
14.8922
16.539
18.0347
19.4278
20.7302
21.943
23.0643
24.0918
25.0238
25.8591
26.5974
27.239
27.7853
28.2379
28.5995
28.873
29.0621
29.1705
29.2027
29.1633
29.0571
28.8891
28.6645
28.3885
28.0663
27.7032
27.3044
26.875
26.4197
25.9435
25.4508
24.946
24.4331
23.916
23.3982
22.8829
22.373
21.8713
21.38
20.9012
20.4367
19.9879
19.5561
19.1423
18.7472
18.3713
18.0149
17.6782
17.3612
17.0637
16.7853
16.5256
16.2842
16.0604
15.8535
15.6628
15.4876
15.327
15.1804
15.0467
14.9253
14.8152
14.7158
14.6262
14.5458
14.4736
14.4092
14.3517
14.3006
14.2553
14.2153
14.1799
14.1488
14.1215
14.0976
14.0766
14.0583
14.0423
14.0283
14.016
14.0053
13.996
13.9877
13.9804
13.9739
13.9681
13.9628
13.9579
13.9518
13.9392
13.9236
14.2228
3708.6
-544.224
-274.377
-73.6297
-12.9503
4.16518
10.0199
12.8762
14.8349
16.4738
17.9614
19.3459
20.6394
21.8429
22.9545
23.9719
24.8935
25.7179
26.445
27.0751
27.6095
28.05
28.3991
28.66
28.8362
28.9316
28.9507
28.898
28.7785
28.5973
28.3594
28.0702
27.735
27.359
26.9475
26.5055
26.038
25.5498
25.0454
24.5292
24.0054
23.4776
22.9496
22.4244
21.9051
21.3943
20.8944
20.4074
19.9351
19.479
19.0402
18.6199
18.2186
17.8369
17.4752
17.1335
16.8118
16.5099
16.2275
15.9641
15.7193
15.4923
15.2825
15.0893
14.9117
14.749
14.6003
14.4649
14.3419
14.2304
14.1298
14.0391
13.9576
13.8847
13.8195
13.7614
13.7098
13.6641
13.6238
13.5882
13.5569
13.5295
13.5056
13.4847
13.4665
13.4507
13.437
13.4251
13.4147
13.4058
13.398
13.3913
13.3854
13.3802
13.3757
13.3715
13.3664
13.3558
13.3445
13.6179
3708.6
-544.235
-274.396
-73.6563
-12.9846
4.12291
9.96947
12.8174
14.7676
16.3976
17.8759
19.251
20.5348
21.7281
22.8293
23.836
24.7464
25.5595
26.2749
26.8931
27.4152
27.8433
28.1798
28.4279
28.5911
28.6735
28.6795
28.6137
28.481
28.2866
28.0357
27.7336
27.3856
26.997
26.573
26.1189
25.6394
25.1396
24.6239
24.0968
23.5623
23.0244
22.4864
21.9518
21.4235
20.904
20.3959
19.901
19.4213
18.9581
18.5127
18.0861
17.679
17.2918
16.9249
16.5785
16.2523
15.9463
15.6601
15.3932
15.1451
14.9152
14.7027
14.507
14.3271
14.1624
14.0119
13.8748
13.7502
13.6375
13.5356
13.4439
13.3615
13.2877
13.2218
13.1632
13.1111
13.065
13.0243
12.9886
12.9571
12.9297
12.9057
12.8849
12.8668
12.8512
12.8377
12.8261
12.8162
12.8076
12.8003
12.7941
12.7888
12.7842
12.7804
12.7769
12.7727
12.7639
12.7561
13.006
3708.59
-544.248
-274.417
-73.6865
-13.0237
4.07486
9.9123
12.7509
14.6916
16.3118
17.7802
19.1451
20.4183
21.6009
22.691
23.6864
24.5853
25.3866
26.0899
26.6959
27.2056
27.6211
27.9449
28.1801
28.3303
28.3997
28.3926
28.3138
28.1681
27.9608
27.6971
27.3823
27.0218
26.6209
26.1849
25.7189
25.228
24.7169
24.1904
23.6527
23.108
22.5602
22.0128
21.4691
20.9321
20.4043
19.8883
19.386
18.8991
18.4293
17.9776
17.545
17.1323
16.7399
16.3682
16.0172
15.6868
15.3769
15.0871
14.8169
14.5657
14.333
14.1179
13.9198
13.7378
13.5711
13.4188
13.2802
13.1542
13.0402
12.9372
12.8444
12.7612
12.6866
12.6201
12.5609
12.5084
12.4619
12.4209
12.3849
12.3533
12.3258
12.3018
12.281
12.2631
12.2476
12.2343
12.223
12.2134
12.2052
12.1984
12.1926
12.1878
12.1839
12.1807
12.1779
12.1745
12.1673
12.1624
12.3906
3708.59
-544.262
-274.441
-73.7199
-13.0668
4.02195
9.84944
12.678
14.6083
16.2181
17.6759
19.0299
20.292
21.4633
22.5419
23.5256
24.4126
25.2018
25.8929
26.4864
26.9835
27.3863
27.6973
27.9196
28.057
28.1135
28.0935
28.0018
27.8434
27.6234
27.3472
27.02
26.6474
26.2345
25.7868
25.3094
24.8073
24.2854
23.7484
23.2005
22.646
22.0888
21.5323
20.98
20.4346
19.899
19.3755
18.866
18.3724
17.8962
17.4385
17.0003
16.5823
16.185
15.8086
15.4533
15.1189
14.8053
14.5121
14.2387
13.9846
13.7492
13.5317
13.3314
13.1474
12.9788
12.8249
12.6847
12.5574
12.4422
12.3381
12.2444
12.1603
12.0851
12.0179
11.9582
11.9052
11.8583
11.8171
11.7808
11.7491
11.7215
11.6975
11.6767
11.6589
11.6435
11.6305
11.6194
11.6101
11.6023
11.5958
11.5905
11.5862
11.5828
11.5801
11.578
11.5754
11.5696
11.567
11.7754
3708.58
-544.278
-274.467
-73.7559
-13.1132
3.96506
9.78194
12.5997
14.5192
16.118
17.5645
18.9072
20.1578
21.3174
22.3841
23.3558
24.2307
25.0075
25.6862
26.2671
26.7517
27.1417
27.44
27.6495
27.7741
27.8178
27.7852
27.6809
27.51
27.2776
26.9892
26.65
26.2656
25.8412
25.3821
24.8937
24.3809
23.8486
23.3014
22.7438
22.18
21.6137
21.0486
20.4879
19.9347
19.3915
18.8608
18.3446
17.8446
17.3623
16.8989
16.4553
16.0323
15.6303
15.2496
14.8902
14.5521
14.235
13.9385
13.6621
13.4053
13.1674
12.9476
12.7452
12.5592
12.389
12.2335
12.0919
11.9633
11.8469
11.7418
11.6472
11.5623
11.4864
11.4186
11.3583
11.3049
11.2577
11.2162
11.1797
11.1478
11.1201
11.0961
11.0753
11.0575
11.0423
11.0294
11.0186
11.0095
11.002
10.9959
10.991
10.9871
10.9842
10.9821
10.9805
10.9787
10.9741
10.9734
11.1635
3708.58
-544.294
-274.494
-73.7939
-13.1621
3.90502
9.71076
12.5173
14.4254
16.0128
17.4477
18.7786
20.0174
21.1651
22.2197
23.1792
24.0417
24.8062
25.4723
26.0407
26.5126
26.8901
27.1756
27.3726
27.4846
27.5158
27.4707
27.354
27.1709
26.9265
26.6262
26.2754
25.8795
25.4439
24.974
24.475
23.9518
23.4095
22.8527
22.2858
21.7129
21.138
20.5647
19.9961
19.4354
18.8851
18.3475
17.8249
17.3188
16.8308
16.362
15.9134
15.4856
15.0792
14.6943
14.3311
13.9894
13.669
13.3694
13.0903
12.8309
12.5906
12.3686
12.1642
11.9765
11.8045
11.6476
11.5046
11.3748
11.2574
11.1513
11.0559
10.9702
10.8936
10.8252
10.7645
10.7106
10.6631
10.6213
10.5846
10.5526
10.5247
10.5006
10.4799
10.4621
10.447
10.4343
10.4236
10.4148
10.4075
10.4017
10.3972
10.3937
10.3913
10.3896
10.3886
10.3874
10.384
10.3847
10.5582
3708.57
-544.311
-274.522
-73.8335
-13.2131
3.84259
9.63681
12.4318
14.3282
15.9038
17.3268
18.6458
19.8725
21.008
22.0505
22.9976
23.8478
24.5998
25.2535
25.8094
26.2688
26.6337
26.9068
27.0913
27.191
27.2099
27.1526
27.024
26.829
26.5729
26.2611
25.8991
25.4922
25.0458
24.5654
24.0562
23.5231
22.9713
22.4052
21.8294
21.248
20.6649
20.0836
19.5076
18.9397
18.3826
17.8386
17.3098
16.798
16.3045
15.8307
15.3773
14.945
14.5344
14.1457
13.7788
13.4338
13.1102
12.8078
12.526
12.2642
12.0217
11.7977
11.5914
11.4019
11.2284
11.0701
10.9258
10.7949
10.6764
10.5695
10.4732
10.3868
10.3096
10.2407
10.1794
10.1252
10.0773
10.0352
9.99827
9.96608
9.93813
9.91397
9.89321
9.87548
9.86045
9.84781
9.8373
9.82866
9.82167
9.81615
9.81191
9.80882
9.80672
9.80551
9.80496
9.80438
9.80193
9.80385
9.96195
3708.56
-544.328
-274.551
-73.8742
-13.2655
3.77849
9.56092
12.344
14.2286
15.7922
17.2032
18.5101
19.7247
20.848
21.8781
22.813
23.6508
24.3905
25.0318
25.5753
26.0224
26.375
26.6358
26.8082
26.8957
26.9027
26.8336
26.6932
26.4868
26.2194
25.8965
25.5236
25.1061
24.6494
24.159
23.64
23.0975
22.5365
21.9616
21.3773
20.7877
20.1968
19.6081
19.025
18.4503
17.8867
17.3367
16.8021
16.2849
15.7863
15.3076
14.8497
14.4132
13.9987
13.6062
13.236
12.8878
12.5613
12.2562
11.9719
11.7078
11.4632
11.2372
11.0292
10.8381
10.6632
10.5035
10.3581
10.2261
10.1066
9.99876
9.90173
9.81467
9.7368
9.66737
9.60567
9.55103
9.50281
9.46042
9.42329
9.39093
9.36285
9.33862
9.31782
9.3001
9.28512
9.27257
9.26217
9.25369
9.24691
9.24162
9.23765
9.23486
9.23311
9.23227
9.23215
9.2321
9.23051
9.23337
9.37736
3708.56
-544.346
-274.58
-73.9155
-13.3187
3.71337
9.48387
12.255
14.1275
15.6791
17.078
18.3728
19.5752
20.6863
21.7043
22.6269
23.4525
24.1799
24.809
25.3404
25.7753
26.1159
26.3647
26.5252
26.601
26.5963
26.5158
26.3642
26.1466
25.8683
25.5348
25.1514
24.7238
24.2572
23.7571
23.2288
22.6773
22.1076
21.5243
20.9319
20.3346
19.7363
19.1406
18.5506
17.9696
17.3999
16.8441
16.3041
15.7817
15.2783
14.7951
14.3329
13.8925
13.4742
13.0784
12.7049
12.3537
12.0245
11.7169
11.4302
11.164
10.9174
10.6896
10.4799
10.2873
10.111
9.95008
9.80355
9.67054
9.55014
9.44149
9.34371
9.256
9.17755
9.10762
9.04548
8.99045
8.9419
8.89923
8.86188
8.82934
8.80113
8.7768
8.75595
8.73821
8.72325
8.71076
8.70046
8.69211
8.68548
8.68039
8.67665
8.67411
8.67265
8.67214
8.67238
8.6728
8.67197
8.67556
8.80661
3708.55
-544.364
-274.61
-73.9571
-13.3723
3.64783
9.40635
12.1655
14.026
15.5655
16.9524
18.2351
19.4254
20.5244
21.5303
22.4408
23.2543
23.9698
24.5869
25.1063
25.5294
25.8582
26.0955
26.2444
26.3088
26.2929
26.2013
26.0387
25.8105
25.5218
25.178
24.7847
24.3473
23.8712
23.362
22.8247
22.2647
21.6867
21.0954
20.4954
19.8908
19.2855
18.683
18.0868
17.4996
16.9243
16.363
15.8179
15.2907
14.7827
14.2952
13.8291
13.3849
12.9632
12.5641
12.1876
11.8336
11.5019
11.1918
10.903
10.6347
10.3862
10.1568
9.94553
9.75156
9.57397
9.41184
9.26425
9.13028
9.00901
8.89958
8.80111
8.71277
8.63377
8.56335
8.50078
8.44538
8.39651
8.35357
8.31599
8.28326
8.2549
8.23047
8.20955
8.19178
8.17681
8.16435
8.15411
8.14586
8.13935
8.13441
8.13086
8.12854
8.12732
8.12708
8.12763
8.12845
8.12829
8.13244
8.25159
3708.55
-544.382
-274.64
-73.9987
-13.4258
3.58239
9.32898
12.0762
13.9248
15.4523
16.8273
18.098
19.2764
20.3635
21.3575
22.2562
23.0579
23.7615
24.367
24.8748
25.2864
25.6038
25.8297
25.9675
26.0209
25.9941
25.8918
25.7189
25.4803
25.1816
24.828
24.4252
23.9785
23.4934
22.9755
22.4298
21.8616
21.2757
20.6769
20.0697
19.4582
18.8462
18.2375
17.6352
17.0423
16.4616
15.8952
15.3453
14.8135
14.3013
13.8098
13.3399
12.8923
12.4673
12.0651
11.6858
11.3293
10.9951
10.6828
10.3919
10.1217
9.87153
9.6405
9.42777
9.23247
9.05367
8.89044
8.74185
8.60698
8.4849
8.37473
8.2756
8.18667
8.10714
8.03625
7.97326
7.9175
7.86831
7.8251
7.78729
7.75437
7.72586
7.7013
7.68029
7.66247
7.64748
7.63502
7.62482
7.61662
7.61021
7.60538
7.60197
7.59981
7.59879
7.59878
7.59959
7.60074
7.60115
7.60572
7.71396
3708.54
-544.4
-274.669
-74.04
-13.4788
3.51755
9.25234
11.9878
13.8245
15.3403
16.7035
17.9625
19.1292
20.2046
21.187
22.0741
22.8643
23.5565
24.1506
24.6471
25.0475
25.3539
25.5689
25.6959
25.7387
25.7016
25.5891
25.4061
25.1578
24.8495
24.4866
24.0746
23.6191
23.1255
22.5992
22.0455
21.4696
20.8763
20.2704
19.6564
19.0383
18.4201
17.8054
17.1975
16.5993
16.0134
15.4423
14.8878
14.3518
13.8356
13.3404
12.867
12.416
11.988
11.583
11.2011
10.842
10.5056
10.1912
9.89843
9.62649
9.37467
9.14215
8.92806
8.73152
8.55158
8.38732
8.23779
8.10206
7.97922
7.86835
7.76859
7.6791
7.59907
7.52772
7.46434
7.40822
7.35872
7.31524
7.2772
7.24408
7.2154
7.19071
7.1696
7.1517
7.13666
7.12418
7.11399
7.10582
7.09946
7.09471
7.0914
7.08937
7.0885
7.08866
7.08968
7.09111
7.092
7.09688
7.19511
3708.54
-544.417
-274.698
-74.0806
-13.5311
3.45371
9.17691
11.9007
13.726
15.2302
16.5819
17.8294
18.9847
20.0487
21.0197
21.8956
22.6746
23.3557
23.9388
24.4245
24.8141
25.1099
25.3144
25.4311
25.4638
25.4167
25.2944
25.1018
24.8442
24.5267
24.155
23.7344
23.2705
22.7688
22.2346
21.6734
21.0902
20.4899
19.8773
19.2568
18.6326
18.0085
17.3882
16.775
16.1718
15.5812
15.0055
14.4468
13.9068
13.3869
12.8881
12.4115
11.9575
11.5266
11.1189
10.7346
10.3732
10.0347
9.71838
9.42378
9.15019
8.89684
8.66293
8.44758
8.24986
8.06887
7.90364
7.75323
7.6167
7.49312
7.3816
7.28124
7.19121
7.1107
7.03892
6.97515
6.91869
6.86889
6.82513
6.78686
6.75354
6.72469
6.69985
6.67862
6.66063
6.64552
6.633
6.62278
6.61461
6.60827
6.60357
6.60032
6.59838
6.59762
6.5979
6.59908
6.60074
6.60203
6.60712
6.69617
3708.53
-544.434
-274.727
-74.1204
-13.5822
3.39124
9.10311
11.8157
13.6296
15.1226
16.4631
17.6995
18.8436
19.8966
20.8567
21.7217
22.4899
23.1603
23.7328
24.208
24.5873
24.8728
25.0673
25.1742
25.1971
25.1405
25.0089
24.8072
24.5407
24.2146
23.8344
23.4057
22.9338
22.4245
21.8829
21.3146
20.7245
20.1176
19.4987
18.8721
18.2421
17.6126
16.987
16.3688
15.7609
15.1658
14.586
14.0234
13.4796
12.9562
12.4542
11.9744
11.5176
11.084
10.6739
10.2872
9.92381
9.58328
9.26517
8.96889
8.69376
8.439
8.20379
7.98724
7.78844
7.60645
7.44031
7.28907
7.15179
7.02753
6.91538
6.81447
6.72393
6.64295
6.57076
6.50661
6.44981
6.39971
6.35569
6.31718
6.28365
6.25462
6.22963
6.20827
6.19016
6.17497
6.16238
6.15211
6.14392
6.13757
6.13288
6.12966
6.12777
6.12707
6.12744
6.12872
6.13055
6.13217
6.13738
6.21803
3708.52
-544.451
-274.754
-74.1591
-13.632
3.33046
9.03133
11.7329
13.5359
15.018
16.3477
17.5732
18.7067
19.749
20.6985
21.553
22.3108
22.9709
23.5333
23.9985
24.3679
24.6437
24.8286
24.926
24.9397
24.8741
24.7336
24.5233
24.2484
23.9141
23.5259
23.0894
22.6101
22.0935
21.5451
20.97
20.3734
19.7604
19.1355
18.5032
17.8678
17.2331
16.6027
15.9799
15.3675
14.7683
14.1845
13.6182
13.071
12.5443
12.0392
11.5566
11.0972
10.6611
10.2487
9.85989
9.49448
9.15212
8.83232
8.53448
8.25791
8.00184
7.76542
7.54776
7.34794
7.16502
6.99803
6.84601
6.70802
6.58312
6.47038
6.36893
6.27791
6.19649
6.1239
6.05939
6.00227
5.95187
5.90759
5.86884
5.8351
5.80588
5.78072
5.75921
5.74098
5.72569
5.71301
5.70267
5.69442
5.68804
5.68333
5.68011
5.67822
5.67755
5.67796
5.67932
5.68127
5.68314
5.68841
5.76136
3708.52
-544.467
-274.781
-74.1966
-13.6801
3.27163
8.96186
11.6528
13.4453
14.9169
16.2361
17.4513
18.5744
19.6065
20.5458
21.3902
22.1381
22.7884
23.341
23.7966
24.1566
24.4231
24.5989
24.6874
24.6924
24.6181
24.4693
24.2508
23.9679
23.6259
23.2303
22.7865
22.3002
21.7768
21.2217
20.6403
20.0377
19.4189
18.7884
18.1509
17.5104
16.8709
16.2359
15.6087
14.9923
14.3892
13.8018
13.232
12.6816
12.1518
11.6439
11.1587
10.6967
10.2584
9.84383
9.45303
9.08578
8.74171
8.42034
8.12106
7.84315
7.58585
7.3483
7.1296
6.92884
6.74504
6.57726
6.42452
6.28586
6.16035
6.04706
5.9451
5.85362
5.77178
5.69881
5.63395
5.57651
5.52582
5.48127
5.44229
5.40833
5.37892
5.35359
5.33193
5.31356
5.29814
5.28535
5.27492
5.2666
5.26015
5.25539
5.25214
5.25023
5.24955
5.24997
5.25135
5.25337
5.25545
5.26071
5.32663
3708.51
-544.482
-274.807
-74.2327
-13.7265
3.21495
8.89495
11.5757
13.358
14.8195
16.1287
17.3339
18.4472
19.4695
20.3991
21.2339
21.9723
22.6132
23.1566
23.6031
23.9541
24.2118
24.379
24.459
24.4556
24.3733
24.2166
23.9904
23.7
23.3507
22.948
22.4974
22.0045
21.4747
20.9135
20.3262
19.718
19.0937
18.4581
17.8156
17.1704
16.5264
15.8871
15.2559
14.6356
14.0289
13.4381
12.8651
12.3117
11.7791
11.2686
10.7809
10.3166
9.87616
9.45962
9.06698
8.69802
8.35237
8.02954
7.72891
7.44977
7.19132
6.95272
6.73306
6.53141
6.3468
6.17827
6.02485
5.88557
5.75949
5.64567
5.54324
5.45132
5.36908
5.29573
5.23054
5.17279
5.12182
5.07701
5.03779
5.00362
4.974
4.94849
4.92666
4.90814
4.89258
4.87967
4.86914
4.86071
4.85418
4.84935
4.84603
4.84407
4.84335
4.84375
4.84511
4.84717
4.84938
4.85459
4.91408
3708.51
-544.497
-274.832
-74.2673
-13.771
3.16061
8.83081
11.5018
13.2744
14.7263
16.0259
17.2216
18.3254
19.3383
20.2587
21.0844
21.8137
22.4458
22.9804
23.4182
23.7608
24.0101
24.1692
24.2411
24.23
24.14
23.9759
23.7425
23.445
23.0889
22.6796
22.2226
21.7234
21.1877
20.6208
20.028
19.4145
18.7851
18.1447
17.4976
16.848
16.1998
15.5566
14.9216
14.2978
13.6877
13.0938
12.5178
11.9616
11.4264
10.9134
10.4235
9.95706
9.51461
9.09623
8.70188
8.33134
7.98422
7.66004
7.35816
7.07786
6.81835
6.57877
6.35822
6.15574
5.97038
5.80115
5.64709
5.50722
5.3806
5.2663
5.16341
5.07107
4.98845
4.91475
4.84923
4.79118
4.73993
4.69487
4.65541
4.62102
4.5912
4.5655
4.5435
4.52481
4.50911
4.49606
4.48539
4.47686
4.47022
4.46529
4.46188
4.45985
4.45906
4.45939
4.46071
4.46276
4.46506
4.47017
4.5238
3708.5
-544.511
-274.855
-74.3004
-13.8135
3.10873
8.76958
11.4313
13.1946
14.6373
15.9278
17.1144
18.2093
19.2134
20.125
20.942
21.6628
22.2864
22.8127
23.2424
23.577
23.8185
23.9698
24.0343
24.0158
23.9186
23.7475
23.5073
23.2033
22.8407
22.4252
21.9622
21.4574
20.9161
20.3438
19.7459
19.1274
18.4934
17.8484
17.197
16.5434
15.8913
15.2444
14.6059
13.9788
13.3657
12.7688
12.1901
11.6313
11.0937
10.5785
10.0864
9.618
9.17371
8.75363
8.3577
7.98569
7.63722
7.31178
7.00874
6.72737
6.46688
6.22639
6.005
5.80176
5.61569
5.44581
5.29115
5.15074
5.02361
4.90884
4.80552
4.71278
4.6298
4.55576
4.48993
4.43159
4.38007
4.33475
4.29506
4.26044
4.23042
4.20452
4.18234
4.16349
4.14762
4.13443
4.12362
4.11494
4.10818
4.10313
4.09962
4.09748
4.0966
4.09684
4.09809
4.10009
4.10243
4.10741
4.1557
3708.5
-544.525
-274.878
-74.3318
-13.8539
3.05941
8.71137
11.3643
13.1188
14.5528
15.8346
17.0127
18.099
19.0947
19.9981
20.8069
21.5196
22.1353
22.6538
23.0758
23.4029
23.637
23.7811
23.8385
23.8131
23.7093
23.5316
23.2851
22.9749
22.6064
22.1851
21.7165
21.2063
20.6598
20.0826
19.4799
18.8569
18.2185
17.5693
16.914
16.2565
15.6009
14.9506
14.3089
13.6787
13.0627
12.4631
11.8819
11.3207
10.7809
10.2635
9.76948
9.29929
8.85331
8.43165
8.03426
7.66089
7.31117
6.98457
6.68045
6.39809
6.13669
5.89536
5.67319
5.46923
5.2825
5.11202
4.9568
4.81587
4.68827
4.57306
4.46933
4.37622
4.29288
4.21852
4.15239
4.09376
4.04198
3.99642
3.95649
3.92165
3.89142
3.86533
3.84296
3.82393
3.80789
3.79453
3.78357
3.77475
3.76785
3.76266
3.75901
3.75676
3.75575
3.75589
3.75703
3.75896
3.7613
3.76611
3.80954
3708.5
-544.538
-274.899
-74.3616
-13.8922
3.01269
8.65625
11.3008
13.0471
14.4728
15.7464
16.9164
17.9948
18.9826
19.8781
20.6792
21.3844
21.9926
22.5038
22.9186
23.2385
23.4658
23.6031
23.6539
23.6221
23.512
23.3282
23.0758
22.7599
22.3858
21.9592
21.4854
20.9702
20.4189
19.8371
19.23
18.6027
17.9603
17.3073
16.6482
15.9873
15.3283
14.6749
14.0302
13.3973
12.7786
12.1765
11.5929
11.0295
10.4876
9.96836
9.47251
9.00065
8.5531
8.12999
7.73125
7.35663
7.00574
6.67806
6.37295
6.08968
5.82742
5.58531
5.36242
5.1578
4.97045
4.79941
4.64366
4.50225
4.3742
4.25857
4.15446
4.06099
3.97732
3.90265
3.83623
3.77733
3.72529
3.67948
3.63932
3.60427
3.57383
3.54753
3.52497
3.50576
3.48955
3.47602
3.46489
3.45591
3.44885
3.44351
3.43972
3.43732
3.43618
3.43618
3.4372
3.43903
3.44134
3.44596
3.48496
3708.49
-544.55
-274.919
-74.3897
-13.9283
2.9686
8.60424
11.2409
12.9794
14.3973
15.6633
16.8257
17.8965
18.8769
19.7651
20.559
21.257
21.8583
22.3626
22.7707
23.084
23.3048
23.4358
23.4805
23.4427
23.3268
23.1373
22.8794
22.5581
22.179
21.7473
21.2688
20.7489
20.1932
19.6071
18.9959
18.3648
17.7186
17.062
16.3996
15.7354
15.0734
14.4171
13.7696
13.1341
12.513
11.9086
11.3228
10.7574
10.2136
9.69258
9.19507
8.72166
8.27267
7.84822
7.44823
7.07245
6.72049
6.39182
6.08579
5.80166
5.53862
5.29579
5.07223
4.86698
4.67907
4.50749
4.35126
4.20939
4.08092
3.9649
3.86043
3.76662
3.68263
3.60766
3.54095
3.48179
3.4295
3.38345
3.34307
3.3078
3.27715
3.25065
3.2279
3.2085
3.1921
3.17839
3.16709
3.15794
3.15072
3.14522
3.14126
3.13871
3.13741
3.13726
3.13813
3.13984
3.14208
3.14649
3.18147
3708.49
-544.561
-274.938
-74.4162
-13.9623
2.92715
8.55535
11.1846
12.9157
14.3264
15.5852
16.7404
17.8042
18.7776
19.659
20.4462
21.1376
21.7323
22.2302
22.632
22.9392
23.154
23.2792
23.3181
23.2748
23.1534
22.9587
22.6957
22.3695
21.9856
21.5493
21.0664
20.5423
19.9825
19.3924
18.7775
18.1427
17.493
16.8332
16.1677
15.5005
14.8357
14.1767
13.5267
12.8888
12.2654
11.6589
11.0712
10.5039
9.95837
9.43569
8.93666
8.46182
8.0115
7.58581
7.18467
6.80782
6.45487
6.12528
5.8184
5.53349
5.26972
5.02622
4.80203
4.59621
4.40776
4.23569
4.079
3.93671
3.80784
3.69145
3.58663
3.4925
3.40821
3.33296
3.26598
3.20656
3.15403
3.10775
3.06714
3.03165
3.00079
2.9741
2.95115
2.93155
2.91497
2.90108
2.8896
2.88027
2.87287
2.8672
2.86307
2.86035
2.85888
2.85856
2.85928
2.86084
2.86298
2.86716
2.8985
3708.48
-544.572
-274.956
-74.441
-13.9941
2.8883
8.50953
11.1319
12.8561
14.26
15.512
16.6606
17.7178
18.6848
19.5597
20.3406
21.0258
21.6145
22.1064
22.5024
22.8039
23.0131
23.1329
23.1666
23.1181
22.9917
22.7922
22.5244
22.1937
21.8054
21.3649
20.8779
20.3498
19.7862
19.1926
18.5742
17.9361
17.2833
16.6204
15.952
15.2821
14.6147
13.9532
13.301
12.6609
12.0354
11.427
10.8374
10.2684
9.72129
9.19711
8.69667
8.22052
7.76898
7.34215
6.93995
6.56212
6.20826
5.87782
5.57016
5.28452
5.02007
4.77594
4.55118
4.34482
4.15587
3.98334
3.82622
3.68353
3.55429
3.43755
3.33241
3.23797
3.15339
3.07786
3.01062
2.95096
2.89819
2.85168
2.81085
2.77515
2.74409
2.71719
2.69405
2.67426
2.65748
2.64341
2.63174
2.62223
2.61465
2.60879
2.60449
2.60158
2.59994
2.59944
2.59998
2.60138
2.6034
2.60734
2.63538
3708.48
-544.582
-274.972
-74.4641
-14.0239
2.85201
8.46673
11.0826
12.8005
14.198
15.4437
16.5862
17.6372
18.5981
19.4672
20.2422
20.9217
21.5047
21.9911
22.3817
22.678
22.882
22.9968
23.0255
22.9723
22.8413
22.6373
22.3653
22.0303
21.638
21.1936
20.7028
20.1711
19.6041
19.0072
18.3855
17.7444
17.0887
16.4231
15.7521
15.0797
14.4099
13.7462
13.0918
12.4497
11.8224
11.2122
10.6209
10.0503
9.50174
8.97618
8.47446
7.9971
7.54444
7.11656
6.71339
6.33465
5.97995
5.64873
5.34034
5.05402
4.78896
4.54424
4.31894
4.11208
3.92267
3.74971
3.59219
3.44912
3.31953
3.20246
3.09701
3.00228
2.91742
2.84163
2.77415
2.71424
2.66124
2.61451
2.57347
2.53756
2.50629
2.4792
2.45586
2.43588
2.41891
2.40464
2.39279
2.38309
2.37532
2.36928
2.36479
2.36169
2.35986
2.35917
2.35953
2.36075
2.36264
2.36633
2.39137
3708.48
-544.591
-274.988
-74.4857
-14.0516
2.81821
8.42688
11.0367
12.7486
14.1403
15.3802
16.5169
17.5623
18.5176
19.3811
20.1507
20.8249
21.4027
21.884
22.2696
22.561
22.7603
22.8705
22.8947
22.8371
22.7019
22.4938
22.2178
21.879
21.4829
21.035
20.5408
20.0058
19.4356
18.8356
18.2111
17.5672
16.9089
16.2407
15.5673
14.8926
14.2207
13.5549
12.8986
12.2547
11.6256
11.0138
10.421
9.84898
9.29903
8.77221
8.2693
7.79084
7.33714
6.90831
6.50423
6.12466
5.76918
5.43724
5.12818
4.84124
4.57559
4.33034
4.10454
3.89722
3.70737
3.534
3.3761
3.23268
3.10276
2.98539
2.87964
2.78463
2.69951
2.62347
2.55575
2.49561
2.44239
2.39544
2.35419
2.31808
2.28661
2.25932
2.23578
2.21561
2.19845
2.184
2.17195
2.16206
2.1541
2.14787
2.14318
2.1399
2.13787
2.13699
2.13715
2.13819
2.13992
2.14335
2.1657
3708.47
-544.599
-275.002
-74.5058
-14.0773
2.78682
8.38987
10.9942
12.7005
14.0867
15.3212
16.4526
17.4927
18.4429
19.3013
20.0659
20.7352
21.3082
21.7849
22.1659
22.4528
22.6478
22.7536
22.7738
22.7122
22.5731
22.3612
22.0815
21.7393
21.3398
20.8886
20.3913
19.8533
19.2802
18.6774
18.0503
17.4039
16.7431
16.0727
15.397
14.7203
14.0464
13.3788
12.7207
12.0751
11.4444
10.8311
10.2369
9.6636
9.11241
8.58443
8.08044
7.60097
7.14632
6.7166
6.3117
5.93136
5.57517
5.24256
4.93288
4.64536
4.37918
4.13342
3.90716
3.6994
3.50915
3.3354
3.17715
3.03339
2.90316
2.78549
2.67947
2.58419
2.49882
2.42254
2.35458
2.29423
2.24079
2.19364
2.15218
2.11587
2.08421
2.05672
2.03299
2.01263
1.99528
1.98063
1.9684
1.95832
1.95016
1.94374
1.93886
1.93538
1.93315
1.93207
1.93203
1.93288
1.93445
1.93762
1.95752
3708.47
-544.607
-275.015
-74.5243
-14.1012
2.75774
8.35559
10.9547
12.656
14.0371
15.2667
16.3931
17.4284
18.3738
19.2275
19.9875
20.6523
21.2209
21.6933
22.0701
22.3529
22.5439
22.6459
22.6623
22.597
22.4543
22.239
21.9561
21.6106
21.2081
20.7539
20.2537
19.713
19.1373
18.532
17.9024
17.2537
16.5907
15.9182
15.2406
14.562
13.8863
13.217
12.5573
11.9101
11.2781
10.6634
10.0679
9.49341
8.94111
8.41207
7.90708
7.42668
6.97117
6.54063
6.13498
5.75393
5.39707
5.06385
4.75359
4.46554
4.19886
3.95264
3.72594
3.51777
3.32714
3.15304
2.99445
2.85039
2.71986
2.60191
2.49562
2.4001
2.31449
2.23798
2.1698
2.10923
2.05558
2.00823
1.96657
1.93007
1.89821
1.87054
1.84662
1.82606
1.80853
1.79369
1.78127
1.771
1.76265
1.75603
1.75096
1.74727
1.74485
1.74357
1.74332
1.74398
1.74537
1.74828
1.76598
3708.47
-544.615
-275.028
-74.5415
-14.1232
2.73087
8.32392
10.9183
12.6149
13.9913
15.2163
16.3382
17.369
18.31
19.1595
19.9153
20.5759
21.1405
21.6089
21.9819
22.2609
22.4483
22.5467
22.5597
22.4911
22.3452
22.1268
21.8408
21.4925
21.0871
20.6303
20.1275
19.5843
19.0062
18.3986
17.7669
17.1161
16.4512
15.7768
15.0973
14.417
13.7397
13.0688
12.4077
11.7592
11.1258
10.5099
9.91327
9.33764
8.78431
8.25431
7.74841
7.26716
6.81085
6.37957
5.97322
5.59152
5.23405
4.90026
4.58947
4.30092
4.03377
3.78712
3.56001
3.35147
3.16049
2.98605
2.82715
2.68278
2.55198
2.43376
2.32722
2.23146
2.14562
2.06889
2.0005
1.93972
1.88587
1.83832
1.79648
1.75978
1.72774
1.69988
1.67577
1.65504
1.63732
1.62229
1.60968
1.59922
1.59068
1.58387
1.5786
1.57472
1.5721
1.57061
1.57016
1.57062
1.57183
1.57448
1.5902
3708.47
-544.622
-275.039
-74.5573
-14.1435
2.7061
8.29472
10.8847
12.5769
13.9491
15.1699
16.2876
17.3144
18.2514
19.0969
19.8488
20.5057
21.0666
21.5314
21.9009
22.1765
22.3605
22.4558
22.4656
22.394
22.2452
22.024
21.7353
21.3843
20.9764
20.5172
20.012
19.4666
18.8864
18.2767
17.643
16.9904
16.3236
15.6475
14.9665
14.2846
13.6058
12.9336
12.2711
11.6213
10.9868
10.3697
9.7721
9.19548
8.64121
8.11033
7.60361
7.12158
6.66454
6.23257
5.82558
5.44328
5.08525
4.75093
4.43964
4.15063
3.88305
3.636
3.40851
3.19961
3.00829
2.83354
2.67434
2.5297
2.39863
2.28016
2.17338
2.07739
1.99133
1.91439
1.84579
1.78481
1.73077
1.68303
1.641
1.60412
1.5719
1.54385
1.51957
1.49865
1.48075
1.46554
1.45275
1.4421
1.43338
1.42637
1.42091
1.41683
1.41401
1.41232
1.41166
1.41192
1.41295
1.41535
1.42929
3708.47
-544.628
-275.049
-74.5719
-14.1622
2.68329
8.26785
10.8538
12.5421
13.9103
15.1272
16.2411
17.2642
18.1975
19.0394
19.7878
20.4413
20.9988
21.4603
21.8266
22.0992
22.2802
22.3725
22.3796
22.3052
22.1538
21.93
21.6389
21.2855
20.8754
20.4139
19.9067
19.3593
18.7771
18.1656
17.5302
16.8758
16.2075
15.5298
14.8473
14.1641
13.484
12.8105
12.1468
11.4959
10.8603
10.2422
9.64364
9.06612
8.511
7.97931
7.47184
6.9891
6.53139
6.09879
5.69121
5.30835
4.9498
4.61499
4.30325
4.01381
3.74583
3.49839
3.27055
3.06131
2.86968
2.69463
2.53515
2.39025
2.25892
2.14022
2.03321
1.937
1.85072
1.77358
1.70479
1.64362
1.58939
1.54147
1.49926
1.4622
1.4298
1.40158
1.37712
1.35602
1.33794
1.32256
1.30958
1.29875
1.28985
1.28265
1.277
1.27273
1.26971
1.26782
1.26696
1.26702
1.26787
1.27001
1.28235
3708.46
-544.634
-275.059
-74.5853
-14.1794
2.66234
8.24317
10.8255
12.5101
13.8747
15.0881
16.1985
17.2181
18.1481
18.9867
19.732
20.3823
20.9368
21.3954
21.7588
22.0285
22.2068
22.2965
22.301
22.2242
22.0704
21.8444
21.551
21.1956
20.7834
20.32
19.8109
19.2616
18.6778
18.0647
17.4276
16.7718
16.102
15.423
14.7392
14.0547
13.3734
12.6987
12.034
11.3821
10.7455
10.1266
9.52709
8.94875
8.39286
7.86044
7.35228
6.86889
6.41057
5.97739
5.56926
5.1859
4.82686
4.4916
4.17943
3.88959
3.62123
3.37344
3.14526
2.93571
2.74378
2.56845
2.40871
2.26355
2.13198
2.01305
1.90582
1.8094
1.72293
1.64558
1.5766
1.51525
1.46084
1.41274
1.37036
1.33313
1.30055
1.27216
1.24753
1.22626
1.20801
1.19245
1.1793
1.1683
1.15921
1.15183
1.14599
1.14153
1.13832
1.13623
1.13518
1.13504
1.1357
1.13761
1.1485
3708.46
-544.639
-275.068
-74.5976
-14.1952
2.64311
8.22052
10.7994
12.4807
13.8421
15.0522
16.1595
17.176
18.1029
18.9385
19.6809
20.3284
20.8801
21.336
21.6968
21.9641
22.14
22.2273
22.2295
22.1505
21.9946
21.7665
21.4712
21.1138
20.6999
20.2347
19.724
19.1731
18.5877
17.9731
17.3347
16.6775
16.0065
15.3262
14.6412
13.9556
13.2733
12.5976
11.932
11.2791
10.6417
10.0219
9.42167
8.84259
8.286
7.75292
7.24412
6.76014
6.30125
5.86755
5.45892
5.07508
4.7156
4.37991
4.06735
3.77713
3.50842
3.26029
3.0318
2.82195
2.62974
2.45414
2.29415
2.14874
2.01695
1.8978
1.79036
1.69373
1.60707
1.52954
1.46037
1.39884
1.34426
1.29599
1.25343
1.21604
1.1833
1.15474
1.12994
1.10851
1.09009
1.07437
1.06104
1.04986
1.0406
1.03305
1.02703
1.02238
1.01898
1.01671
1.01545
1.01512
1.0156
1.01727
1.02688
3708.46
-544.644
-275.076
-74.6089
-14.2097
2.62547
8.19975
10.7756
12.4538
13.8122
15.0193
16.1237
17.1374
18.0616
18.8945
19.6343
20.2792
20.8284
21.2819
21.6404
21.9054
22.0791
22.1643
22.1645
22.0835
21.9258
21.6959
21.3988
21.0398
20.6242
20.1575
19.6453
19.093
18.5063
17.8904
17.2507
16.5924
15.9202
15.2389
14.5529
13.8663
13.183
12.5065
11.8399
11.1863
10.5481
9.92755
9.3266
8.74686
8.18963
7.65594
7.14658
6.66205
6.20265
5.76846
5.35936
4.97508
4.61519
4.27911
3.96618
3.67561
3.40656
3.15812
2.92933
2.7192
2.52672
2.35087
2.19063
2.04499
1.91298
1.79362
1.68598
1.58916
1.5023
1.42459
1.35525
1.29355
1.2388
1.19036
1.14764
1.11009
1.07719
1.04847
1.02351
1.00192
0.983339
0.967449
0.95396
0.942615
0.933181
0.925457
0.919261
0.914439
0.910854
0.908393
0.906954
0.906436
0.906734
0.908178
0.916628
3708.46
-544.648
-275.083
-74.6193
-14.2229
2.60929
8.18071
10.7537
12.4292
13.7848
14.9893
16.0911
17.1022
18.0238
18.8543
19.5917
20.2343
20.7813
21.2327
21.5891
21.852
22.0238
22.1072
22.1055
22.0228
21.8634
21.6319
21.3333
20.9728
20.5558
20.0878
19.5743
19.0208
18.4329
17.8159
17.1751
16.5157
15.8425
15.1603
14.4734
13.7859
13.1018
12.4245
11.7572
11.1028
10.4639
9.84272
9.24114
8.66079
8.10299
7.56876
7.05887
6.57385
6.11398
5.67933
5.26981
4.88513
4.52485
4.1884
3.87512
3.58422
3.31486
3.06612
2.83705
2.62665
2.43391
2.25781
2.09734
1.95149
1.81926
1.6997
1.59186
1.49486
1.40782
1.32993
1.26042
1.19855
1.14364
1.09505
1.05217
1.01446
0.981398
0.952528
0.927415
0.905667
0.886931
0.870883
0.857235
0.845728
0.836132
0.828241
0.821876
0.816882
0.813122
0.810482
0.808861
0.808162
0.808285
0.809513
0.81693
3708.46
-544.652
-275.09
-74.6288
-14.2351
2.59445
8.16325
10.7337
12.4066
13.7597
14.9618
16.0612
17.07
17.9893
18.8177
19.5529
20.1934
20.7385
21.1879
21.5424
21.8036
21.9736
22.0553
22.0521
21.9679
21.807
21.5741
21.2742
20.9124
20.4942
20.025
19.5103
18.9558
18.3668
17.7489
17.1072
16.4468
15.7728
15.0897
14.402
13.7138
13.029
12.3509
11.683
11.028
10.3885
9.7667
9.16457
8.58368
8.02536
7.49063
6.98027
6.49479
6.03449
5.59943
5.18951
4.80445
4.44381
4.10702
3.79341
3.5022
3.23254
2.98352
2.75417
2.54352
2.35053
2.1742
2.01351
1.86744
1.73501
1.61525
1.50723
1.41004
1.32283
1.24477
1.17509
1.11307
1.058
1.00924
0.966214
0.928351
0.895144
0.866124
0.840862
0.818965
0.800078
0.783879
0.770078
0.758417
0.748663
0.740613
0.734086
0.728926
0.724997
0.722186
0.720391
0.719517
0.719471
0.720493
0.726987
3708.46
-544.656
-275.096
-74.6375
-14.2463
2.58082
8.14722
10.7153
12.3859
13.7368
14.9366
16.0338
17.0405
17.9578
18.7842
19.5175
20.1562
20.6994
21.1471
21.5
21.7596
21.9281
22.0084
22.0038
21.9182
21.756
21.5219
21.2208
20.858
20.4387
19.9685
19.4529
18.8974
18.3076
17.6888
17.0463
16.3852
15.7104
15.0266
14.3382
13.6494
12.9639
12.2853
11.6167
10.9612
10.3211
9.69882
9.09618
8.51481
7.95602
7.42085
6.91006
6.42416
5.96346
5.52802
5.11774
4.73232
4.37134
4.03423
3.72031
3.4288
3.15886
2.90957
2.67997
2.46907
2.27585
2.09929
1.93838
1.79211
1.65948
1.53953
1.43132
1.33396
1.24657
1.16835
1.09852
1.03633
0.981108
0.932206
0.889028
0.851019
0.817667
0.788504
0.763098
0.741057
0.722026
0.705682
0.691734
0.679924
0.67002
0.661816
0.655134
0.649816
0.645727
0.642751
0.640789
0.639749
0.63954
0.640366
0.646038
3708.45
-544.659
-275.102
-74.6456
-14.2566
2.56828
8.13248
10.6984
12.3668
13.7157
14.9135
16.0087
17.0135
17.929
18.7536
19.4852
20.1222
20.6639
21.11
21.4615
21.7197
21.8869
21.9658
21.96
21.8733
21.7101
21.4749
21.1729
20.809
20.3889
19.9178
19.4014
18.8451
18.2546
17.635
16.9919
16.3301
15.6547
14.9703
14.2814
13.592
12.9059
12.2268
11.5577
10.9017
10.2612
9.63841
9.03532
8.45352
7.89431
7.35874
6.84755
6.36128
5.90021
5.46442
5.0538
4.66805
4.30676
3.96934
3.65513
3.36334
3.09313
2.84358
2.61373
2.40259
2.20914
2.03237
1.87125
1.72477
1.59195
1.47181
1.36343
1.26589
1.17834
1.09996
1.02997
0.96763
0.912259
0.863212
0.81989
0.78174
0.748249
0.718946
0.693402
0.671223
0.652053
0.635569
0.621481
0.609529
0.599481
0.591132
0.584301
0.578833
0.57459
0.571458
0.569337
0.568138
0.567773
0.568414
0.573353
3708.45
-544.663
-275.107
-74.653
-14.2662
2.5567
8.11888
10.6828
12.3493
13.6963
14.8922
15.9857
16.9888
17.9026
18.7256
19.4556
20.0912
20.6315
21.0763
21.4264
21.6834
21.8495
21.9273
21.9205
21.8328
21.6686
21.4326
21.1297
20.7651
20.3442
19.8724
19.3553
18.7984
18.2072
17.5871
16.9434
16.2811
15.6052
14.9203
14.2308
13.541
12.8545
12.1749
11.5054
10.8489
10.208
9.58484
8.98136
8.39917
7.8396
7.30366
6.79212
6.3055
5.8441
5.40798
4.99703
4.61098
4.24939
3.91169
3.59719
3.30514
3.03467
2.78487
2.55478
2.34341
2.14974
1.97275
1.81143
1.66476
1.53175
1.41143
1.30287
1.20517
1.11745
1.03892
0.96877
0.906283
0.850768
0.801579
0.758119
0.719832
0.686205
0.656769
0.631091
0.60878
0.589476
0.572859
0.558637
0.546549
0.536364
0.527876
0.520904
0.515292
0.510904
0.507624
0.505353
0.504002
0.503489
0.503956
0.508243
3708.45
-544.666
-275.112
-74.6599
-14.275
2.54598
8.1063
10.6684
12.3331
13.6783
14.8726
15.9645
16.966
17.8783
18.6999
19.4286
20.0628
20.6018
21.0455
21.3945
21.6505
21.8155
21.8925
21.8847
21.7962
21.6313
21.3945
21.0909
20.7257
20.3041
19.8318
19.3141
18.7567
18.165
17.5445
16.9003
16.2376
15.5612
14.8759
14.1861
13.4958
12.8089
12.129
11.4592
10.8023
10.161
9.53752
8.9337
8.35118
7.79127
7.255
6.74314
6.25621
5.7945
5.35807
4.94684
4.5605
4.19862
3.86064
3.54589
3.25357
2.98286
2.73281
2.50249
2.2909
2.09701
1.91982
1.7583
1.61143
1.47824
1.35774
1.24901
1.15114
1.06327
0.984576
0.914281
0.851649
0.795992
0.746666
0.70307
0.66465
0.630893
0.601327
0.575522
0.553082
0.533651
0.516906
0.502555
0.490338
0.480022
0.471402
0.464297
0.45855
0.454024
0.450603
0.44819
0.446697
0.446043
0.446348
0.450054
3708.45
-544.668
-275.117
-74.6663
-14.2832
2.53599
8.09459
10.655
12.3181
13.6617
14.8545
15.9449
16.9449
17.8559
18.6762
19.4036
20.0368
20.5747
21.0173
21.3654
21.6204
21.7846
21.8608
21.8523
21.7631
21.5975
21.3602
21.056
20.6903
20.2683
19.7955
19.2774
18.7196
18.1275
17.5066
16.862
16.199
15.5223
14.8367
14.1466
13.456
12.7688
12.0886
11.4184
10.7613
10.1197
9.4959
8.89178
8.30897
7.74876
7.2122
6.70005
6.21284
5.75084
5.31413
4.90262
4.51601
4.15387
3.81563
3.50062
3.20806
2.9371
2.68682
2.45628
2.24446
2.05037
1.87297
1.71125
1.5642
1.43082
1.31015
1.20125
1.10321
1.01519
0.936341
0.865899
0.803125
0.747329
0.697868
0.654141
0.615592
0.581708
0.552017
0.526088
0.503525
0.483972
0.467104
0.452631
0.440291
0.429851
0.421106
0.413875
0.407999
0.403342
0.39979
0.397243
0.395615
0.394829
0.394981
0.398174
3708.45
-544.671
-275.121
-74.6723
-14.2909
2.52664
8.08363
10.6425
12.3041
13.6462
14.8376
15.9266
16.9254
17.8352
18.6543
19.3806
20.0127
20.5497
20.9914
21.3387
21.593
21.7564
21.832
21.8229
21.7332
21.5671
21.3293
21.0247
20.6585
20.2362
19.763
19.2447
18.6866
18.0942
17.473
16.8282
16.1649
15.488
14.8022
14.1118
13.421
12.7336
12.0531
11.3827
10.7253
10.0835
9.45945
8.85509
8.27201
7.71155
7.17473
6.66232
6.17484
5.71258
5.27562
4.86384
4.47697
4.11458
3.77609
3.46084
3.16804
2.89684
2.64634
2.41557
2.20355
2.00924
1.83164
1.66973
1.52249
1.38893
1.26809
1.15902
1.06083
0.972643
0.893648
0.823061
0.760147
0.704216
0.654622
0.610767
0.572092
0.538085
0.508273
0.482224
0.459543
0.439872
0.422888
0.408297
0.39584
0.385283
0.376419
0.369068
0.363071
0.358293
0.354616
0.351943
0.350189
0.349279
0.349289
0.352026
3708.45
-544.674
-275.125
-74.678
-14.2982
2.51783
8.07331
10.6307
12.2909
13.6317
14.8217
15.9095
16.9071
17.8158
18.6339
19.3593
19.9905
20.5266
20.9676
21.3141
21.5678
21.7307
21.8057
21.7961
21.706
21.5395
21.3013
20.9964
20.63
20.2074
19.7341
19.2155
18.6572
18.0647
17.4433
16.7984
16.1349
15.4579
14.7719
14.0813
13.3903
12.7028
12.0221
11.3516
10.694
10.052
9.4277
8.82312
8.23983
7.67914
7.14209
6.62944
6.14172
5.67922
5.24202
4.83
4.44289
4.08025
3.74153
3.42604
3.13301
2.86158
2.61086
2.37987
2.16763
1.97313
1.79533
1.63322
1.4858
1.35206
1.23104
1.12181
1.02345
0.935118
0.855974
0.785244
0.722192
0.666127
0.616404
0.572422
0.533624
0.499497
0.469568
0.443403
0.420608
0.400825
0.383728
0.369027
0.356458
0.345789
0.336813
0.329349
0.323239
0.318345
0.314552
0.311762
0.309889
0.308863
0.308741
0.311075
3708.45
-544.676
-275.129
-74.6834
-14.3051
2.50945
8.0635
10.6195
12.2784
13.6179
14.8067
15.8934
16.8899
17.7976
18.6147
19.3393
19.9697
20.5051
20.9454
21.2914
21.5445
21.7069
21.7815
21.7716
21.6812
21.5144
21.276
20.9709
20.6044
20.1816
19.7081
19.1895
18.6311
18.0385
17.4171
16.7721
16.1085
15.4314
14.7453
14.0547
13.3636
12.6759
11.9952
11.3245
10.6668
10.0246
9.40018
8.79542
8.21195
7.65107
7.11381
6.60096
6.11302
5.6503
5.21287
4.80062
4.41328
4.05042
3.71146
3.39574
3.10248
2.83084
2.5799
2.3487
2.13625
1.94154
1.76354
1.60124
1.45363
1.31972
1.19853
1.08913
0.990617
0.902126
0.822835
0.751963
0.688773
0.632576
0.582725
0.53862
0.499702
0.465458
0.435414
0.409137
0.386233
0.366341
0.349137
0.334329
0.321654
0.310879
0.301798
0.294227
0.28801
0.283008
0.279106
0.276206
0.274224
0.273088
0.272845
0.274823
3708.45
-544.678
-275.133
-74.6886
-14.3117
2.50142
8.05412
10.6088
12.2664
13.6047
14.7924
15.8781
16.8736
17.7804
18.5967
19.3204
19.9502
20.4849
20.9247
21.2702
21.5229
21.685
21.7592
21.7491
21.6584
21.4915
21.253
20.9479
20.5812
20.1584
19.6849
19.1663
18.6079
18.0153
17.3939
16.7489
16.0854
15.4083
14.7222
14.0315
13.3404
12.6527
11.9719
11.3011
10.6433
10.001
9.37647
8.77158
8.18795
7.62691
7.08948
6.57644
6.08831
5.62538
5.18774
4.77528
4.38772
4.02464
3.68546
3.36952
3.07604
2.80417
2.55302
2.3216
2.10895
1.91403
1.73584
1.57335
1.42556
1.29146
1.1701
1.06054
0.961866
0.873222
0.793784
0.72277
0.659444
0.603116
0.553139
0.508911
0.469875
0.435516
0.405361
0.378976
0.355965
0.335968
0.318661
0.303751
0.290976
0.280101
0.270919
0.263248
0.25693
0.251828
0.247824
0.244821
0.242737
0.2415
0.241145
0.242808
3708.45
-544.68
-275.137
-74.6937
-14.3181
2.49366
8.04505
10.5985
12.2549
13.5921
14.7787
15.8633
16.858
17.7639
18.5794
19.3025
19.9316
20.4659
20.9052
21.2503
21.5027
21.6645
21.7386
21.7283
21.6375
21.4705
21.232
20.9268
20.5602
20.1375
19.6641
19.1455
18.5872
17.9948
17.3734
16.7285
16.0651
15.3881
14.702
14.0114
13.3204
12.6327
11.9518
11.281
10.6232
9.98083
9.3562
8.75121
8.16746
7.60628
7.0687
6.5555
6.06719
5.60407
5.16624
4.75358
4.36581
4.00251
3.66312
3.34696
3.05326
2.78118
2.52981
2.29819
2.08532
1.89021
1.71182
1.54914
1.40116
1.26689
1.14535
1.03562
0.936791
0.847994
0.768408
0.697253
0.633792
0.577333
0.527231
0.482882
0.44373
0.409259
0.378995
0.352503
0.329389
0.309292
0.291886
0.276879
0.264007
0.253037
0.24376
0.235995
0.229583
0.224385
0.220287
0.217189
0.21501
0.21368
0.213222
0.214608
3708.45
-544.682
-275.14
-74.6986
-14.3244
2.48608
8.0362
10.5884
12.2437
13.5798
14.7654
15.8491
16.8429
17.748
18.5628
19.2853
19.9139
20.4477
20.8867
21.2314
21.4836
21.6452
21.7192
21.7088
21.618
21.4511
21.2126
20.9076
20.5411
20.1185
19.6453
19.1269
18.5688
17.9765
17.3554
16.7106
16.0474
15.3705
14.6846
13.9941
13.3031
12.6155
11.9347
11.2639
10.6061
9.96369
9.33901
8.73395
8.15011
7.58882
7.05111
6.53776
6.0493
5.58601
5.148
4.73514
4.34718
3.98367
3.64407
3.3277
3.03379
2.7615
2.50991
2.27808
2.06501
1.86969
1.69111
1.52824
1.38007
1.24562
1.12391
1.01401
0.915018
0.826067
0.746333
0.675036
0.611439
0.554851
0.504623
0.460155
0.420888
0.386306
0.355935
0.32934
0.306126
0.285931
0.26843
0.253329
0.240365
0.229305
0.219939
0.212085
0.205584
0.200298
0.196112
0.192926
0.190658
0.189242
0.188689
0.189832
3708.45
-544.685
-275.144
-74.7034
-14.3306
2.47861
8.02749
10.5785
12.2326
13.5677
14.7524
15.8351
16.8281
17.7325
18.5467
19.2687
19.8968
20.4302
20.8688
21.2134
21.4654
21.6269
21.7009
21.6905
21.5998
21.433
21.1947
20.8899
20.5236
20.1013
19.6283
19.1101
18.5523
17.9603
17.3394
16.6949
16.0319
15.3552
14.6695
13.9792
13.2883
12.6008
11.9201
11.2494
10.5916
9.94926
9.32457
8.71947
8.13557
7.5742
7.03639
6.52292
6.03431
5.57087
5.13268
4.71965
4.33149
3.96779
3.62798
3.3114
3.01729
2.74478
2.49299
2.26095
2.04767
1.85215
1.67336
1.5103
1.36194
1.22731
1.10543
0.995359
0.896204
0.807097
0.727215
0.655775
0.592042
0.535324
0.484972
0.440385
0.401004
0.366312
0.335836
0.30914
0.285828
0.265538
0.247945
0.232754
0.219703
0.208556
0.199105
0.191167
0.184584
0.179216
0.174947
0.171679
0.169331
0.167835
0.167196
0.168125
3708.45
-544.687
-275.147
-74.7082
-14.3367
2.4712
8.01884
10.5687
12.2217
13.5557
14.7394
15.8214
16.8136
17.7173
18.5309
19.2523
19.88
20.4131
20.8515
21.196
21.4478
21.6094
21.6834
21.6732
21.5826
21.416
21.178
20.8734
20.5074
20.0854
19.6128
19.0949
18.5375
17.9458
17.3252
16.681
16.0183
15.3419
14.6565
13.9664
13.2758
12.5884
11.9079
11.2373
10.5796
9.93726
9.31259
8.70748
8.12356
7.56212
7.02423
6.51066
6.02193
5.55834
5.12
4.70679
4.31845
3.95456
3.61455
3.29777
3.00344
2.73073
2.47872
2.24647
2.03299
1.83726
1.65828
1.49502
1.34647
1.21166
1.0896
0.979357
0.880038
0.790774
0.710741
0.639159
0.575289
0.518439
0.467963
0.423257
0.383763
0.348963
0.318383
0.291587
0.268179
0.247797
0.230115
0.214838
0.201703
0.190473
0.180942
0.172926
0.166264
0.160819
0.156474
0.153131
0.150707
0.149138
0.148421
0.149162
3708.44
-544.689
-275.151
-74.713
-14.3428
2.46376
8.01017
10.5589
12.2108
13.5438
14.7266
15.8076
16.7991
17.7022
18.5152
19.2362
19.8635
20.3964
20.8346
21.1789
21.4308
21.5924
21.6665
21.6565
21.5662
21.3999
21.1621
20.8579
20.4923
20.0707
19.5985
19.0811
18.524
17.9328
17.3126
16.6688
16.0065
15.3304
14.6453
13.9555
13.2651
12.578
11.8976
11.2272
10.5696
9.92741
9.3028
8.69772
8.11379
7.55232
7.01437
6.50071
6.01187
5.54816
5.10967
4.6963
4.30779
3.94371
3.60351
3.28652
2.99199
2.71907
2.46685
2.23439
2.02069
1.82476
1.64558
1.48212
1.33338
1.19838
1.07614
0.965724
0.866239
0.776816
0.696632
0.624904
0.560896
0.503915
0.453314
0.408489
0.368881
0.333973
0.303291
0.276397
0.252895
0.232423
0.214654
0.199294
0.186078
0.17477
0.165162
0.157071
0.150336
0.144819
0.140403
0.13699
0.134498
0.132861
0.132073
0.13265
3708.44
-544.691
-275.154
-74.7179
-14.3491
2.45625
8.00143
10.5489
12.1998
13.5318
14.7136
15.7938
16.7846
17.687
18.4995
19.2201
19.8471
20.3797
20.8178
21.1621
21.414
21.5758
21.6501
21.6403
21.5503
21.3844
21.147
20.8432
20.4781
20.057
19.5852
19.0683
18.5118
17.921
17.3013
16.658
15.9961
15.3204
14.6357
13.9462
13.2562
12.5693
11.8892
11.219
10.5616
9.91948
9.29496
8.68994
8.10603
7.54455
7.00656
6.49283
6.0039
5.54007
5.10145
4.68793
4.29925
3.93498
3.59459
3.27741
2.98267
2.70954
2.45711
2.22444
2.01054
1.8144
1.635
1.47135
1.32241
1.18722
1.0648
0.954208
0.854555
0.76497
0.684631
0.612757
0.548609
0.491496
0.440768
0.395824
0.356103
0.321088
0.290303
0.263313
0.239718
0.219158
0.201305
0.185864
0.172569
0.161187
0.151506
0.143345
0.136541
0.130957
0.126475
0.122997
0.120442
0.118744
0.117891
0.118325
3708.44
-544.693
-275.158
-74.7229
-14.3554
2.4486
7.99253
10.5389
12.1886
13.5196
14.7005
15.7799
16.7699
17.6717
18.4837
19.2039
19.8306
20.363
20.8011
21.1454
21.3974
21.5593
21.6339
21.6245
21.5349
21.3693
21.1325
20.8292
20.4646
20.044
19.5728
19.0565
18.5005
17.9103
17.2912
16.6484
15.9869
15.3118
14.6275
13.9384
13.2487
12.5622
11.8824
11.2124
10.5552
9.91325
9.28886
8.68392
8.10006
7.53859
7.00058
6.4868
5.9978
5.53387
5.09512
4.68145
4.29261
3.92817
3.58759
3.27021
2.97527
2.70193
2.44929
2.2164
2.00229
1.80594
1.62634
1.46248
1.31335
1.17796
1.05535
0.944583
0.844758
0.755009
0.674514
0.60249
0.538201
0.480953
0.430099
0.385035
0.3452
0.310078
0.279191
0.252104
0.228419
0.207772
0.189836
0.174316
0.160947
0.149492
0.139742
0.131513
0.124645
0.118998
0.114455
0.110917
0.108304
0.10655
0.105639
0.105949
3708.44
-544.696
-275.161
-74.7281
-14.362
2.4407
7.98341
10.5286
12.1772
13.5071
14.6871
15.7656
16.7549
17.6561
18.4676
19.1874
19.8139
20.3462
20.7842
21.1285
21.3807
21.5429
21.6178
21.6088
21.5196
21.3546
21.1183
20.8156
20.4516
20.0316
19.5611
19.0454
18.4901
17.9004
17.2819
16.6397
15.9789
15.3042
14.6204
13.9318
13.2426
12.5564
11.8769
11.2072
10.5503
9.90853
9.28429
8.67947
8.09568
7.53425
6.99624
6.48243
5.99336
5.52934
5.09048
4.67668
4.28768
3.92307
3.58231
3.26473
2.96959
2.69604
2.44318
2.21008
1.99575
1.79919
1.61938
1.45531
1.30598
1.17039
1.04759
0.936646
0.836646
0.746731
0.666076
0.593901
0.529468
0.472085
0.421102
0.375917
0.335968
0.300737
0.269749
0.242567
0.21879
0.198058
0.180041
0.164445
0.151002
0.139478
0.129662
0.121369
0.11444
0.108734
0.104134
0.100542
0.0978751
0.0960704
0.095107
0.095309
3708.44
-544.698
-275.165
-74.7338
-14.3692
2.43233
7.97391
10.5179
12.1654
13.4943
14.6733
15.7511
16.7396
17.6402
18.4512
19.1706
19.7969
20.329
20.767
21.1115
21.3639
21.5264
21.6016
21.5931
21.5044
21.34
21.1043
20.8022
20.4389
20.0197
19.5498
19.0349
18.4802
17.8913
17.2735
16.6319
15.9717
15.2976
14.6144
13.9263
13.2375
12.5518
11.8727
11.2033
10.5466
9.90514
9.28109
8.67641
8.09272
7.53136
6.99337
6.47954
5.99042
5.52633
5.08736
4.67343
4.28428
3.91951
3.57856
3.26079
2.96545
2.69169
2.43862
2.2053
1.99075
1.79397
1.61395
1.44967
1.30013
1.16435
1.04135
0.93022
0.830042
0.739956
0.659139
0.58681
0.522231
0.46471
0.413597
0.368289
0.328225
0.292886
0.261796
0.234518
0.210652
0.189835
0.171739
0.156067
0.142553
0.130962
0.121082
0.112729
0.105742
0.0999806
0.0953279
0.0916846
0.0889696
0.0871188
0.0861086
0.0862172
3708.44
-544.702
-275.171
-74.7411
-14.3779
2.42279
7.96366
10.5068
12.1533
13.4812
14.6592
15.7361
16.7239
17.6238
18.4343
19.1534
19.7794
20.3115
20.7495
21.0941
21.3468
21.5096
21.5853
21.5772
21.4892
21.3254
21.0903
20.789
20.4265
20.008
19.5389
19.0247
18.4709
17.8827
17.2656
16.6248
15.9653
15.2919
14.6092
13.9217
13.2335
12.5482
11.8695
11.2005
10.5442
9.90294
9.27911
8.6746
8.09104
7.52975
6.9918
6.47798
5.98883
5.52467
5.0856
4.67155
4.28226
3.91733
3.5762
3.25824
2.96269
2.68872
2.43544
2.2019
1.98713
1.79013
1.60989
1.44539
1.29565
1.15966
1.03647
0.925148
0.824788
0.734528
0.653546
0.58106
0.516332
0.458671
0.407426
0.361994
0.321813
0.286365
0.255173
0.227799
0.203843
0.182942
0.164767
0.149021
0.135439
0.123782
0.113841
0.10543
0.098388
0.0925752
0.0878733
0.0841832
0.0814239
0.0795314
0.0784794
0.0785078
3708.44
-544.71
-275.181
-74.7527
-14.3907
2.41004
7.95148
10.4946
12.1406
13.4676
14.6447
15.7207
16.7077
17.607
18.417
19.1357
19.7615
20.2935
20.7316
21.0764
21.3293
21.4925
21.5687
21.5612
21.4738
21.3106
21.0764
20.7758
20.4141
19.9965
19.5283
19.0149
18.4619
17.8746
17.2583
16.6183
15.9595
15.2868
14.6048
13.9179
13.2302
12.5455
11.8673
11.1987
10.5427
9.90178
9.27821
8.6739
8.09049
7.52931
6.99142
6.47761
5.98844
5.52423
5.08508
4.67092
4.28149
3.9164
3.5751
3.25694
2.96119
2.68701
2.43351
2.19975
1.98476
1.78753
1.60707
1.44236
1.29239
1.1562
1.03281
0.921293
0.820747
0.73031
0.649158
0.576512
0.511633
0.453829
0.40245
0.356892
0.316593
0.281035
0.24974
0.222269
0.198224
0.17724
0.158987
0.143168
0.129518
0.117798
0.107798
0.0993317
0.0922375
0.0863759
0.0816281
0.077895
0.0750953
0.0731652
0.0720763
0.0720361
3708.42
-544.738
-275.206
-74.7767
-14.4145
2.38857
7.93384
10.4797
12.1265
13.4532
14.6297
15.7049
16.6912
17.5899
18.3994
19.1177
19.7433
20.2752
20.7133
21.0583
21.3115
21.4751
21.5518
21.5449
21.4582
21.2958
21.0623
20.7626
20.4018
19.985
19.5177
19.0053
18.4532
17.8668
17.2514
16.6121
15.9542
15.2823
14.601
13.9148
13.2277
12.5436
11.8659
11.1978
10.5421
9.90156
9.27827
8.67419
8.09096
7.52991
6.9921
6.47833
5.98915
5.5249
5.08567
4.67141
4.28185
3.9166
3.57513
3.25678
2.96083
2.68643
2.43271
2.19873
1.98351
1.78606
1.60537
1.44043
1.29025
1.15385
1.03025
0.918538
0.817801
0.727183
0.645859
0.573049
0.508016
0.450066
0.398551
0.352864
0.312446
0.276776
0.245377
0.21781
0.193675
0.172607
0.154277
0.138387
0.12467
0.112889
0.102831
0.0943114
0.0871678
0.0812603
0.0764697
0.0726969
0.0698605
0.0678967
0.0667753
0.066677
3708.35
-544.857
-275.291
-74.8349
-14.4643
2.34617
7.90196
10.4564
12.1081
13.4368
14.6137
15.6886
16.6744
17.5726
18.3816
19.0996
19.7249
20.2567
20.6949
21.04
21.2936
21.4576
21.5348
21.5285
21.4425
21.2808
21.0482
20.7494
20.3894
19.9736
19.5073
18.9958
18.4446
17.8592
17.2447
16.6064
15.9493
15.2782
14.5977
13.9123
13.2259
12.5423
11.8652
11.1975
10.5424
9.90216
9.27918
8.67537
8.09234
7.53144
6.99373
6.48002
5.99085
5.52657
5.08728
4.67291
4.28323
3.91783
3.57619
3.25766
2.9615
2.68689
2.43295
2.19874
1.98329
1.78561
1.60469
1.43953
1.28913
1.1525
1.0287
0.91678
0.81585
0.725046
0.643546
0.570569
0.505379
0.44728
0.395626
0.349809
0.30927
0.273487
0.241983
0.214318
0.190093
0.168942
0.150535
0.134574
0.120792
0.10895
0.0988367
0.0902659
0.0830752
0.0771242
0.0722939
0.0684846
0.0656149
0.063621
0.0624713
0.0623242
3707.98
-545.43
-275.646
-75.0012
-14.5692
2.26319
7.83955
10.4123
12.0763
13.4118
14.5922
15.6687
16.6552
17.5535
18.3626
19.0805
19.7058
20.2376
20.6759
21.0213
21.2751
21.4396
21.5174
21.5117
21.4263
21.2655
21.0337
20.7357
20.3767
19.9619
19.4965
18.9861
18.4359
17.8515
17.238
16.6006
15.9445
15.2743
14.5947
13.91
13.2243
12.5415
11.8649
11.1978
10.5432
9.90338
9.28076
8.67725
8.09446
7.53374
6.99616
6.48253
5.99339
5.5291
5.08976
4.67531
4.28552
3.91998
3.57817
3.25946
2.9631
2.68828
2.43412
2.19968
1.984
1.78608
1.60493
1.43954
1.28892
1.15207
1.02806
0.915933
0.814805
0.723813
0.642133
0.568986
0.503635
0.445386
0.39359
0.347641
0.306978
0.271081
0.239471
0.211709
0.187393
0.166159
0.147675
0.131644
0.117797
0.105896
0.0957286
0.0871084
0.0798727
0.0738809
0.0690134
0.0651706
0.0622708
0.0602504
0.0590763
0.0588888
3706.11
-548.155
-277.253
-75.5949
-14.8025
2.12159
7.73121
10.3269
12.0077
13.3548
14.5427
15.6243
16.6143
17.5151
18.3259
19.0452
19.6717
20.2047
20.6442
20.9909
21.2461
21.412
21.4912
21.487
21.4032
21.2439
21.0136
20.7172
20.3597
19.9463
19.4824
18.9734
18.4246
17.8415
17.2293
16.5932
15.9382
15.2691
14.5905
13.9068
13.2221
12.5401
11.8643
11.1979
10.5438
9.90458
9.28242
8.6793
8.09683
7.53637
6.99899
6.4855
5.99645
5.53219
5.09285
4.67836
4.28848
3.92282
3.58088
3.262
2.96546
2.69044
2.43607
2.20142
1.98551
1.78737
1.60599
1.44038
1.28953
1.15247
1.02823
0.915904
0.814579
0.723396
0.641536
0.568218
0.502705
0.444304
0.392366
0.346284
0.305498
0.269486
0.237769
0.209908
0.185502
0.164185
0.145625
0.129524
0.115614
0.103655
0.0934354
0.0847678
0.0774892
0.0714589
0.066557
0.0626835
0.0597568
0.0577132
0.0565186
0.0562985
3698.51
-559.507
-284.114
-77.9951
-15.4466
1.92287
7.60511
10.1986
11.8686
13.2071
14.3898
15.4694
16.4595
17.3622
18.1763
18.9002
19.5324
20.0721
20.5192
20.8741
21.1381
21.3128
21.4009
21.4054
21.3299
21.1784
20.9554
20.6657
20.3144
19.9066
19.4477
18.9432
18.3985
17.8189
17.21
16.5767
15.9243
15.2575
14.5809
13.8991
13.2159
12.5354
11.8608
11.1956
10.5425
9.90415
9.28276
8.68029
8.09837
7.53837
7.00137
6.48817
5.99935
5.53526
5.09601
4.68157
4.29169
3.92599
3.58397
3.26499
2.96831
2.69314
2.4386
2.20375
1.98765
1.78931
1.60772
1.44189
1.29083
1.15356
1.02913
0.916597
0.815078
0.723711
0.641674
0.568188
0.502516
0.443965
0.391885
0.345672
0.304762
0.268636
0.236814
0.208857
0.184361
0.162962
0.144327
0.128158
0.114186
0.102171
0.0919006
0.0831877
0.0758686
0.0698022
0.0648686
0.0609674
0.058017
0.0559535
0.0547423
0.0544979
3699.28
-588.179
-305.168
-85.6014
-17.0677
1.83229
7.68851
10.1917
11.7491
12.9868
14.0838
15.0945
16.034
16.9041
17.702
18.4237
19.0655
19.6238
20.0965
20.4817
20.7791
20.9888
21.1121
21.151
21.1083
20.9875
20.7928
20.5285
20.1998
19.8119
19.3703
18.8805
18.3483
17.7794
17.1792
16.5532
15.9068
15.2449
14.5724
13.8938
13.2133
12.5348
11.862
11.1981
10.5461
9.90858
9.28783
8.68584
8.10428
7.54452
7.00766
6.49453
6.0057
5.54154
5.10219
4.68759
4.29752
3.93161
3.58935
3.2701
2.97315
2.69769
2.44286
2.20772
1.99132
1.79268
1.6108
1.44469
1.29335
1.15581
1.03112
0.918344
0.816591
0.725001
0.642753
0.569069
0.503211
0.444487
0.392246
0.345883
0.304835
0.268582
0.236643
0.208579
0.183986
0.162498
0.143783
0.127541
0.113504
0.10143
0.091108
0.0823488
0.0749889
0.068887
0.0639227
0.0599954
0.0570232
0.0549425
0.0537197
0.0534664
4310.16
-470.408
-290.502
-83.561
-16.0827
2.53627
8.23047
10.7344
12.4071
13.8079
15.0713
16.2284
17.2845
18.2391
19.0903
19.8371
20.4793
21.0173
21.4526
21.7874
22.0245
22.1672
22.2195
22.1857
22.0703
21.8782
21.6148
21.2852
20.8948
20.4493
19.9543
19.4151
18.8375
18.2268
17.5883
16.9273
16.2488
15.5575
14.858
14.1547
13.4515
12.7523
12.0604
11.3789
10.7108
10.0585
9.42413
8.80967
8.21666
7.64641
7.09995
6.57802
6.08116
5.60966
5.16361
4.7429
4.34727
3.97631
3.62945
3.30604
3.00532
2.72645
2.46852
2.23059
2.01168
1.81077
1.62686
1.45891
1.30593
1.16692
1.04091
0.92695
0.824142
0.731612
0.648527
0.574097
0.507577
0.448265
0.395504
0.348681
0.307226
0.270614
0.238359
0.210016
0.185179
0.163478
0.144576
0.128171
0.113992
0.101796
0.091367
0.0825166
0.0750788
0.068911
0.0638914
0.0599186
0.0569098
0.0548018
0.0535681
0.0533543
)
;

boundaryField
{
    xmin
    {
        type            calculated;
        value           uniform 0;
    }
    xmax
    {
        type            calculated;
        value           nonuniform List<scalar> 
100
(
3771.39
-411.607
-254.189
-73.1152
-14.0715
2.22031
7.20293
9.39409
10.8578
12.0837
13.1894
14.202
15.1263
15.9617
16.7067
17.3603
17.9223
18.3933
18.7743
19.0674
19.275
19.4
19.4459
19.4164
19.3155
19.1476
18.9172
18.6289
18.2875
17.8977
17.4646
16.993
16.4876
15.9533
15.3947
14.8164
14.2228
13.6179
13.006
12.3906
11.7754
11.1635
10.5582
9.96195
9.37736
8.80661
8.25159
7.71396
7.19511
6.69617
6.21803
5.76136
5.32663
4.91408
4.5238
4.1557
3.80954
3.48496
3.18147
2.8985
2.63538
2.39137
2.1657
1.95752
1.76598
1.5902
1.42929
1.28235
1.1485
1.02688
0.916628
0.81693
0.726987
0.646038
0.573353
0.508243
0.450054
0.398174
0.352026
0.311075
0.274823
0.242808
0.214608
0.189832
0.168125
0.149162
0.13265
0.118325
0.105949
0.095309
0.0862172
0.0785078
0.0720361
0.066677
0.0623242
0.0588888
0.0562985
0.0544979
0.0534664
0.0533543
)
;
    }
    ymin
    {
        type            calculated;
        value           uniform 0;
    }
    ymax
    {
        type            calculated;
        value           nonuniform List<scalar> 
100
(
4310.16
-470.408
-290.502
-83.561
-16.0827
2.53627
8.23047
10.7344
12.4071
13.8079
15.0713
16.2284
17.2845
18.2391
19.0903
19.8371
20.4793
21.0173
21.4526
21.7874
22.0245
22.1672
22.2195
22.1857
22.0703
21.8782
21.6148
21.2852
20.8948
20.4493
19.9543
19.4151
18.8375
18.2268
17.5883
16.9273
16.2488
15.5575
14.858
14.1547
13.4515
12.7523
12.0604
11.3789
10.7108
10.0585
9.42413
8.80967
8.21666
7.64641
7.09995
6.57802
6.08116
5.60966
5.16361
4.7429
4.34727
3.97631
3.62945
3.30604
3.00532
2.72645
2.46852
2.23059
2.01168
1.81077
1.62686
1.45891
1.30593
1.16692
1.04091
0.92695
0.824142
0.731612
0.648527
0.574097
0.507577
0.448265
0.395504
0.348681
0.307226
0.270614
0.238359
0.210016
0.185179
0.163478
0.144576
0.128171
0.113992
0.101796
0.091367
0.0825166
0.0750788
0.068911
0.0638914
0.0599186
0.0569098
0.0548018
0.0535681
0.0533543
)
;
    }
    frontAndBack
    {
        type            empty;
    }
}


// ************************************************************************* //
