/*--------------------------------*- C++ -*----------------------------------*\
  =========                 |
  \\      /  F ield         | OpenFOAM: The Open Source CFD Toolbox
   \\    /   O peration     | Website:  https://openfoam.org
    \\  /    A nd           | Version:  10
     \\/     M anipulation  |
\*---------------------------------------------------------------------------*/
FoamFile
{
    format      ascii;
    class       volScalarField;
    location    "3.5";
    object      ddt0(T);
}
// * * * * * * * * * * * * * * * * * * * * * * * * * * * * * * * * * * * * * //

dimensions      [0 0 -1 1 0 0 0];

internalField   nonuniform List<scalar> 
10000
(
7145.06
3593.12
3537.69
3593.5
3611.88
3616.76
3618.13
3618.57
3618.76
3618.86
3618.94
3619
3619.06
3619.12
3619.17
3619.21
3619.26
3619.29
3619.33
3619.35
3619.38
3619.4
3619.41
3619.43
3619.44
3619.44
3619.45
3619.45
3619.45
3619.44
3619.44
3619.43
3619.42
3619.41
3619.4
3619.39
3619.38
3619.36
3619.35
3619.34
3619.32
3619.31
3619.3
3619.29
3619.27
3619.26
3619.25
3619.24
3619.23
3619.22
3619.21
3619.2
3619.2
3619.19
3619.18
3619.18
3619.17
3619.17
3619.16
3619.16
3619.16
3619.15
3619.15
3619.15
3619.14
3619.14
3619.14
3619.14
3619.14
3619.14
3619.13
3619.13
3619.13
3619.13
3619.13
3619.13
3619.13
3619.13
3619.13
3619.13
3619.13
3619.13
3619.13
3619.13
3619.13
3619.13
3619.12
3619.12
3619.12
3619.12
3619.12
3619.12
3619.11
3619.1
3619.01
3618.62
3616.84
3610.76
3622.9
4255.94
4145.05
-732.192
-694.001
-549.686
-502.099
-489.138
-485.506
-484.327
-483.831
-483.539
-483.316
-483.122
-482.945
-482.783
-482.633
-482.496
-482.373
-482.263
-482.165
-482.081
-482.008
-481.948
-481.899
-481.861
-481.833
-481.814
-481.803
-481.801
-481.806
-481.817
-481.833
-481.855
-481.881
-481.91
-481.943
-481.977
-482.014
-482.052
-482.09
-482.129
-482.168
-482.206
-482.244
-482.281
-482.317
-482.351
-482.384
-482.415
-482.445
-482.473
-482.499
-482.524
-482.547
-482.568
-482.587
-482.605
-482.621
-482.636
-482.65
-482.662
-482.673
-482.683
-482.691
-482.699
-482.706
-482.712
-482.718
-482.723
-482.727
-482.731
-482.734
-482.737
-482.74
-482.742
-482.744
-482.746
-482.748
-482.75
-482.751
-482.753
-482.755
-482.756
-482.758
-482.76
-482.762
-482.764
-482.766
-482.768
-482.771
-482.774
-482.777
-482.782
-482.793
-482.831
-482.983
-483.653
-486.534
-497.249
-519.58
-393.201
4073.67
-726.75
-572.761
-377.255
-312.721
-294.665
-289.475
-287.746
-286.99
-286.528
-286.165
-285.845
-285.553
-285.282
-285.034
-284.806
-284.601
-284.417
-284.255
-284.114
-283.993
-283.892
-283.81
-283.746
-283.698
-283.667
-283.649
-283.645
-283.652
-283.67
-283.698
-283.734
-283.776
-283.825
-283.879
-283.936
-283.997
-284.06
-284.124
-284.188
-284.253
-284.317
-284.38
-284.441
-284.501
-284.558
-284.613
-284.665
-284.715
-284.761
-284.805
-284.846
-284.884
-284.919
-284.951
-284.981
-285.008
-285.033
-285.055
-285.075
-285.093
-285.11
-285.124
-285.138
-285.149
-285.159
-285.169
-285.177
-285.184
-285.19
-285.196
-285.2
-285.205
-285.209
-285.212
-285.215
-285.218
-285.221
-285.224
-285.227
-285.229
-285.232
-285.235
-285.238
-285.241
-285.244
-285.248
-285.252
-285.256
-285.26
-285.265
-285.273
-285.286
-285.323
-285.446
-285.922
-287.838
-294.999
-314.568
-304.123
4115.37
-608.45
-405.985
-189.728
-117.747
-97.1779
-91.1029
-89.0027
-88.0377
-87.4201
-86.9235
-86.4817
-86.0757
-85.7006
-85.3553
-85.0399
-84.7546
-84.4994
-84.2741
-84.078
-83.9105
-83.7704
-83.6565
-83.5674
-83.5016
-83.4574
-83.4333
-83.4275
-83.4382
-83.4637
-83.5024
-83.5525
-83.6125
-83.6809
-83.7561
-83.8367
-83.9216
-84.0093
-84.099
-84.1895
-84.2799
-84.3696
-84.4576
-84.5435
-84.6267
-84.7069
-84.7836
-84.8567
-84.9258
-84.991
-85.0522
-85.1092
-85.1623
-85.2113
-85.2565
-85.298
-85.336
-85.3705
-85.4018
-85.4302
-85.4556
-85.4785
-85.499
-85.5172
-85.5335
-85.5478
-85.5606
-85.5718
-85.5817
-85.5905
-85.5982
-85.605
-85.6111
-85.6166
-85.6215
-85.626
-85.6301
-85.6341
-85.6379
-85.6416
-85.6453
-85.6491
-85.6529
-85.657
-85.6613
-85.6659
-85.6708
-85.6761
-85.6818
-85.6881
-85.6953
-85.7047
-85.7197
-85.7515
-85.8344
-86.0858
-86.9382
-89.8904
-98.0488
-99.8243
4129.96
-568.723
-350.686
-127.245
-52.3739
-30.6758
-24.1196
-21.7658
-20.6272
-19.8668
-19.2419
-18.6814
-18.1649
-17.6872
-17.2475
-16.8457
-16.4823
-16.1572
-15.8702
-15.6205
-15.407
-15.2287
-15.0837
-14.9704
-14.8869
-14.831
-14.8008
-14.7939
-14.8082
-14.8415
-14.8916
-14.9564
-15.0338
-15.1218
-15.2187
-15.3225
-15.4316
-15.5445
-15.6598
-15.7761
-15.8924
-16.0075
-16.1206
-16.231
-16.3379
-16.4408
-16.5393
-16.6331
-16.7219
-16.8056
-16.884
-16.9573
-17.0253
-17.0883
-17.1463
-17.1996
-17.2482
-17.2926
-17.3328
-17.3691
-17.4018
-17.4311
-17.4574
-17.4808
-17.5016
-17.52
-17.5363
-17.5507
-17.5635
-17.5747
-17.5845
-17.5933
-17.6011
-17.608
-17.6143
-17.62
-17.6253
-17.6303
-17.6351
-17.6399
-17.6445
-17.6493
-17.6543
-17.6594
-17.6649
-17.6707
-17.6769
-17.6836
-17.6909
-17.6988
-17.7078
-17.7188
-17.7349
-17.764
-17.8262
-17.97
-18.3308
-19.3146
-21.6155
-22.4965
4133.95
-557.8
-335.161
-109.351
-33.377
-11.1567
-4.31707
-1.77386
-0.483875
0.410526
1.15905
1.83497
2.4591
3.0367
3.56857
4.0544
4.49383
4.88685
5.23382
5.53559
5.79335
6.0087
6.18351
6.31992
6.42023
6.48693
6.52259
6.52985
6.51139
6.46988
6.40795
6.3282
6.23312
6.12512
6.00651
5.87944
5.74594
5.60789
5.46701
5.32488
5.1829
5.04231
4.90421
4.76953
4.63907
4.51348
4.39328
4.27888
4.17056
4.06851
3.97282
3.88352
3.80054
3.72376
3.65303
3.58812
3.5288
3.47479
3.4258
3.38154
3.34168
3.30592
3.27393
3.24542
3.22008
3.19762
3.17775
3.16022
3.14476
3.13113
3.11911
3.10848
3.09904
3.09061
3.08301
3.07608
3.06966
3.06363
3.05784
3.05218
3.04654
3.04081
3.03489
3.02871
3.02217
3.01521
3.00775
2.99973
2.99107
2.98165
2.9712
2.95897
2.94271
2.91648
2.86658
2.7672
2.57746
2.23688
1.77816
1.71736
4135.09
-554.696
-330.655
-104.017
-27.5773
-5.07636
1.95849
4.65845
6.08662
7.10834
7.97603
8.76369
9.49221
10.1667
10.7878
11.355
11.8679
12.3264
12.7311
13.0829
13.3831
13.6337
13.8369
13.995
14.1109
14.1874
14.2275
14.2343
14.211
14.1606
14.0864
13.9912
13.8782
13.75
13.6094
13.4589
13.301
13.1378
12.9713
12.8034
12.6357
12.4698
12.3068
12.1479
11.994
11.8459
11.7042
11.5693
11.4416
11.3213
11.2086
11.1033
11.0056
10.9151
10.8318
10.7553
10.6854
10.6218
10.5641
10.512
10.4651
10.423
10.3853
10.3517
10.3219
10.2955
10.2721
10.2515
10.2333
10.2173
10.2032
10.1907
10.1796
10.1698
10.1609
10.1528
10.1453
10.1383
10.1316
10.125
10.1185
10.1119
10.105
10.0979
10.0903
10.0823
10.0737
10.0645
10.0545
10.0437
10.0319
10.0187
10.0028
9.98021
9.94168
9.86928
9.74152
9.56518
9.49866
9.73205
4135.47
-553.66
-329.116
-102.126
-25.4383
-2.74936
4.44217
7.28195
8.83958
9.98297
10.9653
11.8607
12.6899
13.4578
14.1647
14.8101
15.3935
15.9149
16.3747
16.7741
17.1147
17.3986
17.6283
17.8066
17.9366
18.0216
18.065
18.0704
18.0414
17.9815
17.8944
17.7834
17.652
17.5033
17.3405
17.1665
16.984
16.7956
16.6035
16.4099
16.2167
16.0255
15.8378
15.6548
15.4776
15.3072
15.1441
14.9889
14.842
14.7037
14.574
14.453
14.3405
14.2366
14.1408
14.0529
13.9726
13.8995
13.8332
13.7733
13.7193
13.671
13.6277
13.5892
13.5549
13.5246
13.4977
13.4741
13.4532
13.4349
13.4187
13.4044
13.3918
13.3805
13.3703
13.3611
13.3527
13.3447
13.3371
13.3297
13.3223
13.3149
13.3072
13.2992
13.2908
13.2818
13.2722
13.2618
13.2506
13.2386
13.2256
13.2113
13.1952
13.1751
13.1453
13.0921
12.994
12.8454
12.7861
13.184
4135.64
-553.203
-328.412
-101.218
-24.3585
-1.51808
5.81202
8.78156
10.4619
11.7217
12.814
13.8128
14.7385
15.5958
16.3848
17.1049
17.7555
18.3366
18.8487
19.2931
19.6716
19.9866
20.2408
20.4374
20.5799
20.672
20.7176
20.7205
20.6849
20.6148
20.5141
20.3867
20.2365
20.067
19.8818
19.6841
19.477
19.2634
19.0457
18.8265
18.6077
18.3914
18.1791
17.9722
17.7719
17.5793
17.395
17.2198
17.0539
16.8976
16.7512
16.6146
16.4877
16.3704
16.2623
16.1631
16.0725
15.99
15.9152
15.8477
15.7869
15.7323
15.6835
15.6401
15.6015
15.5673
15.5371
15.5104
15.4869
15.4663
15.4481
15.4321
15.4179
15.4052
15.3939
15.3836
15.3742
15.3653
15.3569
15.3488
15.3407
15.3325
15.3241
15.3153
15.306
15.2962
15.2856
15.2743
15.262
15.2489
15.2346
15.2193
15.2024
15.1832
15.1583
15.1175
15.0368
14.8839
14.7488
15.314
4135.74
-552.92
-327.961
-100.612
-23.6094
-0.634089
6.82424
9.91613
11.7132
13.0839
14.2812
15.3786
16.3963
17.3386
18.2057
18.9966
19.7108
20.3482
20.9094
21.3959
21.8097
22.1533
22.4299
22.643
22.7963
22.8939
22.9402
22.9396
22.8964
22.8151
22.7001
22.5558
22.3863
22.1957
21.9879
21.7663
21.5345
21.2956
21.0524
20.8076
20.5635
20.3222
20.0854
19.8548
19.6317
19.4171
19.2119
19.0167
18.8321
18.6582
18.4952
18.3432
18.2021
18.0715
17.9513
17.841
17.7402
17.6485
17.5654
17.4903
17.4227
17.3621
17.3079
17.2596
17.2167
17.1787
17.1452
17.1156
17.0896
17.0667
17.0465
17.0288
17.0131
16.9992
16.9867
16.9754
16.9651
16.9554
16.9462
16.9374
16.9286
16.9197
16.9107
16.9012
16.8913
16.8807
16.8693
16.8571
16.844
16.8298
16.8145
16.7981
16.7803
16.7609
16.738
16.7041
16.6343
16.4729
16.2507
16.9924
4135.82
-552.697
-327.597
-100.113
-22.9802
0.120268
7.69915
10.9068
12.8147
14.2907
15.5875
16.7784
17.8832
18.906
19.8467
20.7043
21.4781
22.1682
22.7752
23.3007
23.7469
24.1166
24.4132
24.6405
24.8028
24.9044
24.95
24.9444
24.8926
24.7992
24.6693
24.5075
24.3183
24.1062
23.8754
23.6299
23.3733
23.1091
22.8404
22.5701
22.3007
22.0346
21.7736
21.5196
21.2738
21.0375
20.8116
20.5968
20.3935
20.2023
20.023
19.8559
19.7006
19.5571
19.4249
19.3037
19.193
19.0922
19.0008
18.9183
18.844
18.7774
18.7179
18.6649
18.6178
18.5761
18.5393
18.5069
18.4784
18.4533
18.4312
18.4118
18.3947
18.3795
18.366
18.3537
18.3425
18.3321
18.3223
18.3128
18.3034
18.294
18.2844
18.2744
18.2638
18.2526
18.2406
18.2277
18.2138
18.1988
18.1826
18.1653
18.1466
18.1265
18.1041
18.0738
18.0112
17.8434
17.5416
18.4501
4135.88
-552.499
-327.272
-99.6631
-22.4093
0.808692
8.50118
11.8182
13.8306
15.4061
16.7969
18.0758
19.2625
20.3608
21.3704
22.2902
23.1195
23.8584
24.5076
25.0688
25.5444
25.9374
26.2516
26.491
26.6602
26.764
26.8075
26.7957
26.7341
26.6278
26.4821
26.3021
26.0928
25.8588
25.6049
25.3351
25.0537
24.7642
24.4701
24.1745
23.88
23.5893
23.3043
23.027
22.7588
22.5011
22.2547
22.0206
21.7991
21.5906
21.3954
21.2133
21.0442
20.8879
20.744
20.612
20.4915
20.3818
20.2824
20.1926
20.1118
20.0394
19.9746
19.917
19.8658
19.8205
19.7805
19.7453
19.7143
19.6871
19.6632
19.6422
19.6237
19.6074
19.5928
19.5796
19.5676
19.5566
19.5461
19.5361
19.5262
19.5163
19.5062
19.4957
19.4847
19.473
19.4605
19.447
19.4325
19.4169
19.4
19.3819
19.3624
19.3416
19.3191
19.2905
19.2329
19.0619
18.695
19.7465
4135.94
-552.317
-326.972
-99.2463
-21.8791
1.44915
9.24837
12.6681
14.7787
16.4475
17.9262
19.2875
20.5506
21.7192
22.7928
23.7702
24.6507
25.4343
26.1219
26.7154
27.2173
27.6308
27.96
28.2092
28.3833
28.4875
28.5272
28.508
28.4354
28.3152
28.153
27.9542
27.7242
27.468
27.1906
26.8966
26.5903
26.2755
25.9561
25.6352
25.3159
25.0008
24.6921
24.3917
24.1015
23.8226
23.5561
23.3028
23.0634
22.8381
22.6271
22.4303
22.2477
22.0789
21.9234
21.7809
21.6508
21.5324
21.4251
21.3282
21.241
21.1628
21.093
21.0308
20.9756
20.9268
20.8837
20.8457
20.8124
20.7831
20.7575
20.7349
20.7151
20.6976
20.682
20.6681
20.6554
20.6437
20.6327
20.6222
20.6119
20.6016
20.5912
20.5803
20.569
20.5569
20.544
20.5302
20.5153
20.4991
20.4818
20.4631
20.443
20.4216
20.3987
20.3711
20.317
20.1455
19.7307
20.8945
4136
-552.149
-326.692
-98.8583
-21.3852
2.04607
9.94498
13.4605
15.6627
17.4184
18.9789
20.4166
21.7505
22.9839
24.1164
25.1466
26.0738
26.898
27.6203
28.2425
28.7674
29.1985
29.54
29.7967
29.9736
30.0764
30.1107
30.0826
29.9979
29.8629
29.6833
29.4651
29.2139
28.9352
28.6342
28.3157
27.9844
27.6445
27.2998
26.9539
26.6099
26.2706
25.9385
25.6155
25.3034
25.0036
24.7174
24.4454
24.1883
23.9464
23.7199
23.5088
23.3129
23.1318
22.9651
22.8123
22.6727
22.5458
22.4307
22.3269
22.2335
22.1497
22.0749
22.0083
21.9492
21.8969
21.8508
21.8102
21.7746
21.7433
21.7159
21.6919
21.6709
21.6523
21.6358
21.6211
21.6077
21.5955
21.584
21.5731
21.5625
21.5519
21.5412
21.5302
21.5186
21.5063
21.4932
21.4791
21.4639
21.4475
21.4298
21.4108
21.3903
21.3685
21.3454
21.3183
21.2669
21.0971
20.6519
21.8956
4136.05
-551.992
-326.433
-98.4984
-20.927
2.59999
10.5914
14.1958
16.4827
18.3186
19.9546
21.4626
22.8614
24.1543
25.3404
26.4185
27.3878
28.2484
29.0013
29.6486
30.1932
30.6389
30.9901
31.2518
31.4294
31.5289
31.5563
31.5178
31.42
31.269
31.0714
30.8331
30.5604
30.2588
29.9339
29.5909
29.2346
28.8696
28.4998
28.1291
27.7606
27.3975
27.0421
26.6968
26.3632
26.043
25.7373
25.4469
25.1724
24.9143
24.6727
24.4475
24.2386
24.0455
23.8678
23.7049
23.5562
23.4209
23.2983
23.1877
23.0882
22.999
22.9193
22.8484
22.7855
22.7299
22.6808
22.6377
22.5998
22.5667
22.5376
22.5122
22.4899
22.4704
22.453
22.4376
22.4237
22.4109
22.3991
22.3879
22.377
22.3662
22.3554
22.3442
22.3325
22.3202
22.307
22.2928
22.2775
22.261
22.2432
22.224
22.2034
22.1814
22.1581
22.1314
22.0823
21.9161
21.4563
22.7491
4136.1
-551.849
-326.194
-98.1666
-20.5046
3.11051
11.187
14.8731
17.2379
19.1473
20.8523
22.4244
23.8822
25.2288
26.4633
27.5844
28.5911
29.4837
30.2633
30.932
31.4931
31.9503
32.3085
32.5728
32.749
32.8433
32.8621
32.8121
32.6998
32.5321
32.3155
32.0567
31.7619
31.4371
31.0882
30.7206
30.3394
29.9493
29.5546
29.1592
28.7666
28.3799
28.0017
27.6344
27.2797
26.9394
26.6146
26.3061
26.0147
25.7408
25.4843
25.2454
25.0237
24.8189
24.6305
24.4577
24.3001
24.1567
24.0268
23.9095
23.8041
23.7096
23.6252
23.5502
23.4836
23.4247
23.3728
23.3272
23.2872
23.2522
23.2216
23.1948
23.1714
23.1508
23.1327
23.1166
23.1022
23.089
23.0769
23.0654
23.0544
23.0435
23.0326
23.0214
23.0097
22.9974
22.9843
22.9702
22.955
22.9386
22.9209
22.9017
22.8811
22.8592
22.836
22.8097
22.7626
22.6017
22.141
23.4549
4136.15
-551.717
-325.975
-97.8633
-20.1184
3.57723
11.7315
15.492
17.9275
19.9037
21.6711
23.301
24.8119
26.2066
27.4842
28.6432
29.6828
30.6031
31.4054
32.0919
32.666
33.1319
33.4943
33.7588
33.9315
34.0188
34.0275
33.9644
33.8367
33.6512
33.4151
33.1351
32.8178
32.4696
32.0965
31.7043
31.2982
30.8832
30.4638
30.044
29.6276
29.2176
28.8169
28.428
28.0526
27.6926
27.349
27.0229
26.715
26.4255
26.1546
25.9023
25.6682
25.452
25.253
25.0708
24.9044
24.7531
24.6161
24.4924
24.3812
24.2816
24.1926
24.1135
24.0433
23.9813
23.9267
23.8787
23.8366
23.7998
23.7677
23.7396
23.7151
23.6937
23.6748
23.6582
23.6433
23.6298
23.6174
23.6057
23.5946
23.5837
23.5728
23.5617
23.5502
23.538
23.5251
23.5112
23.4963
23.4801
23.4627
23.4438
23.4235
23.4018
23.3788
23.3532
23.3081
23.1539
22.7035
24.0141
4136.19
-551.598
-325.777
-97.5885
-19.7685
4.00004
12.2245
16.0522
18.5514
20.5876
22.4109
24.0925
25.6505
27.0877
28.4031
29.5951
30.6628
31.6065
32.4275
33.1283
33.7122
34.1837
34.5477
34.8101
34.9772
35.0558
35.0527
34.9754
34.831
34.627
34.3706
34.0689
33.7287
33.3569
32.9595
32.5426
32.1118
31.672
31.2281
30.7843
30.3443
29.9115
29.4888
29.0786
28.6829
28.3036
27.9417
27.5984
27.2743
26.9696
26.6847
26.4193
26.1731
25.9458
25.7367
25.5452
25.3703
25.2114
25.0674
24.9375
24.8208
24.7162
24.6228
24.5397
24.4661
24.4011
24.3438
24.2935
24.2494
24.2109
24.1773
24.148
24.1225
24.1002
24.0807
24.0635
24.0482
24.0344
24.0218
24.0101
23.9989
23.9881
23.9773
23.9664
23.9551
23.9432
23.9306
23.9171
23.9025
23.8868
23.8698
23.8514
23.8315
23.8103
23.7879
23.7629
23.72
23.5739
23.1426
24.4295
4136.22
-551.491
-325.6
-97.3421
-19.4547
4.37921
12.6665
16.5542
19.1102
21.1996
23.0723
24.7994
26.3986
27.8728
29.2207
30.4408
31.5321
32.495
33.331
34.0424
34.6329
35.107
35.4701
35.7281
35.8877
35.9557
35.9395
35.8466
35.6846
35.4612
35.1838
34.86
34.4967
34.101
33.6793
33.2378
32.7823
32.318
31.8499
31.3823
30.9192
30.4639
30.0195
29.5885
29.173
28.7748
28.3951
28.035
27.6951
27.3757
27.0771
26.799
26.5411
26.303
26.084
25.8835
25.7004
25.5341
25.3834
25.2475
25.1253
25.0159
24.9182
24.8314
24.7544
24.6864
24.6266
24.5741
24.5281
24.488
24.453
24.4226
24.3961
24.373
24.3528
24.3351
24.3195
24.3055
24.2928
24.281
24.2699
24.2592
24.2486
24.238
24.227
24.2155
24.2033
24.1903
24.1762
24.1611
24.1447
24.1269
24.1077
24.0872
24.0655
24.0414
24.0007
23.8637
23.4582
24.7049
4136.25
-551.397
-325.442
-97.1235
-19.1763
4.71541
13.0583
16.9988
19.6047
21.7407
23.6566
25.423
27.0578
28.5635
29.9388
31.1821
32.2927
33.2707
34.1177
34.8364
35.4304
35.9044
36.264
36.5155
36.6655
36.7213
36.6905
36.5809
36.4004
36.1568
35.858
35.5115
35.1249
34.7051
34.2591
33.7931
33.3131
32.8246
32.3326
31.8416
31.3557
30.8784
30.4127
29.9614
29.5266
29.1099
28.7129
28.3364
27.9811
27.6475
27.3355
27.0451
26.7759
26.5273
26.2988
26.0895
25.8986
25.725
25.5679
25.4261
25.2987
25.1847
25.0829
24.9924
24.9122
24.8414
24.7791
24.7244
24.6766
24.6349
24.5986
24.5671
24.5397
24.5159
24.4951
24.477
24.4611
24.4469
24.4341
24.4223
24.4113
24.4008
24.3905
24.3802
24.3696
24.3586
24.347
24.3345
24.3211
24.3067
24.291
24.2741
24.2557
24.2361
24.2153
24.1922
24.154
24.027
23.6517
24.8455
4136.28
-551.314
-325.304
-96.932
-18.9326
5.0097
13.401
17.3875
20.0366
22.2128
24.1656
25.9655
27.6302
29.1621
30.5599
31.8219
32.9473
33.9365
34.791
35.5135
36.108
36.5793
36.933
37.1758
37.3144
37.3565
37.3099
37.1825
36.9825
36.7181
36.3972
36.0279
35.6176
35.1739
34.7035
34.2131
33.7089
33.1964
32.6808
32.1669
31.6586
31.1597
30.6733
30.2022
29.7484
29.3139
28.8999
28.5075
28.1374
27.7898
27.465
27.1626
26.8824
26.6238
26.386
26.1683
25.9697
25.7892
25.6258
25.4784
25.346
25.2275
25.1217
25.0277
24.9444
24.8709
24.8062
24.7495
24.6999
24.6567
24.6192
24.5866
24.5583
24.5338
24.5126
24.4941
24.4779
24.4635
24.4507
24.439
24.4282
24.418
24.408
24.3981
24.388
24.3775
24.3665
24.3547
24.3421
24.3285
24.3137
24.2977
24.2804
24.2618
24.242
24.2202
24.1845
24.0679
23.726
24.8574
4136.31
-551.243
-325.185
-96.7669
-18.7224
5.26345
13.6963
17.722
20.4079
22.618
24.6018
26.4295
28.1187
29.6718
31.0873
32.3635
33.4997
34.4961
35.3546
36.0779
36.67
37.136
37.4816
37.7137
37.8393
37.8662
37.8025
37.6563
37.4361
37.1502
36.807
36.4144
35.9804
35.5126
35.018
34.5035
33.9753
33.4391
32.9004
32.3638
31.8337
31.3137
30.8071
30.3166
29.8445
29.3925
28.9621
28.5543
28.1698
27.8088
27.4715
27.1576
26.8667
26.5983
26.3516
26.1258
25.9198
25.7326
25.5632
25.4105
25.2732
25.1503
25.0407
24.9433
24.8571
24.7809
24.714
24.6554
24.6041
24.5595
24.5207
24.4871
24.4581
24.433
24.4112
24.3924
24.376
24.3615
24.3487
24.3372
24.3265
24.3166
24.307
24.2975
24.288
24.2781
24.2678
24.2568
24.2451
24.2323
24.2186
24.2036
24.1874
24.17
24.1514
24.131
24.098
23.9921
23.6848
24.7477
4136.33
-551.182
-325.085
-96.6268
-18.5442
5.47832
13.9461
18.0047
20.721
22.9591
24.9682
26.8183
28.5269
30.0962
31.5248
32.811
33.954
34.9542
35.8133
36.5344
37.1214
37.5797
37.9152
38.1347
38.2457
38.2561
38.1742
38.0083
37.7672
37.4594
37.0933
36.6774
36.2196
35.7278
35.2092
34.6707
34.1188
33.5594
32.9979
32.4393
31.8878
31.3472
30.8209
30.3115
29.8215
29.3527
28.9064
28.4837
28.0852
27.7112
27.3618
27.0368
26.7358
26.458
26.2027
25.969
25.7559
25.5623
25.3871
25.2292
25.0873
24.9603
24.847
24.7463
24.6572
24.5786
24.5095
24.449
24.3961
24.3501
24.3102
24.2757
24.2459
24.2202
24.198
24.1788
24.1622
24.1477
24.135
24.1236
24.1132
24.1036
24.0944
24.0855
24.0765
24.0673
24.0578
24.0476
24.0368
24.0251
24.0124
23.9986
23.9836
23.9675
23.9503
23.9313
23.9011
23.8059
23.5334
24.5241
4136.34
-551.132
-325.001
-96.5108
-18.3966
5.65621
14.1526
18.2379
20.9788
23.2393
25.2681
27.1354
28.8585
30.4395
31.8769
33.1691
34.3152
35.3158
36.1725
36.8885
37.468
37.9163
38.2397
38.445
38.54
38.5326
38.4315
38.2452
37.9826
37.6524
37.2633
36.8239
36.3423
35.8266
35.2841
34.722
34.1468
33.5646
32.9808
32.4006
31.8282
31.2676
30.7221
30.1945
29.6872
29.202
28.7403
28.3032
27.8912
27.5048
27.1438
26.8081
26.4971
26.2103
25.9468
25.7056
25.4857
25.2859
25.1052
24.9422
24.7959
24.6649
24.5481
24.4443
24.3525
24.2715
24.2003
24.138
24.0836
24.0363
23.9953
23.9599
23.9294
23.9031
23.8805
23.8611
23.8443
23.8298
23.8171
23.8059
23.7958
23.7865
23.7778
23.7694
23.7611
23.7527
23.7439
23.7347
23.7248
23.7141
23.7026
23.69
23.6764
23.6616
23.6459
23.6285
23.6011
23.5163
23.2777
24.1951
4136.36
-551.092
-324.934
-96.4172
-18.2777
5.79918
14.3182
18.4245
21.1844
23.4618
25.5054
27.385
29.118
30.7064
32.1486
33.443
34.5888
35.5865
36.4379
37.1463
37.7159
38.1523
38.4617
38.6513
38.729
38.7029
38.5817
38.3743
38.0896
37.7368
37.3245
36.8615
36.3563
35.8168
35.2508
34.6654
34.0673
33.4627
32.8572
32.2559
31.6632
31.0831
30.519
29.9738
29.4497
28.9487
28.4722
28.0211
27.5962
27.1977
26.8255
26.4795
26.1591
25.8636
25.5922
25.3438
25.1173
24.9117
24.7256
24.5579
24.4073
24.2725
24.1523
24.0456
23.9511
23.8678
23.7947
23.7306
23.6748
23.6263
23.5843
23.548
23.5168
23.49
23.467
23.4474
23.4305
23.4159
23.4034
23.3923
23.3825
23.3737
23.3655
23.3576
23.35
23.3423
23.3344
23.3261
23.3172
23.3076
23.2973
23.286
23.2738
23.2605
23.2462
23.2305
23.2059
23.1311
22.9249
23.7693
4136.37
-551.061
-324.881
-96.3448
-18.1858
5.90948
14.4456
18.5673
21.3411
23.6305
25.6839
27.5714
29.31
30.9017
32.345
33.6381
34.7804
35.7723
36.6159
37.3143
37.8719
38.2945
38.5884
38.7609
38.8201
38.7743
38.6323
38.4033
38.0963
37.7205
37.2849
36.7985
36.2697
35.7068
35.1175
34.5092
33.8887
33.2622
32.6355
32.0137
31.4013
30.8023
30.2202
29.6579
29.1177
28.6014
28.1106
27.6461
27.2087
26.7986
26.4158
26.0599
25.7304
25.4266
25.1476
24.8923
24.6596
24.4483
24.2572
24.0849
23.9302
23.7918
23.6684
23.5588
23.4619
23.3764
23.3014
23.2357
23.1785
23.1288
23.0858
23.0487
23.0169
22.9896
22.9663
22.9464
22.9294
22.9149
22.9024
22.8916
22.8821
22.8736
22.8659
22.8587
22.8517
22.8448
22.8377
22.8304
22.8226
22.8141
22.805
22.7951
22.7842
22.7725
22.7598
22.7457
22.7239
22.6585
22.4826
23.2561
4136.37
-551.038
-324.843
-96.2919
-18.1189
5.98941
14.5374
18.6697
21.4524
23.7491
25.808
27.6991
29.4393
31.0307
32.4716
33.7603
34.8961
35.8797
36.7129
37.3991
37.943
38.3501
38.627
38.7813
38.821
38.7547
38.5914
38.3403
38.0107
37.6119
37.1531
36.6433
36.0912
35.5051
34.893
34.2623
33.6198
32.972
32.3247
31.6829
31.0514
30.4342
29.8347
29.2559
28.7001
28.1691
27.6646
27.1873
26.7379
26.3167
25.9236
25.5583
25.2201
24.9084
24.6221
24.3602
24.1216
23.9049
23.7089
23.5323
23.3737
23.2318
23.1054
22.9931
22.8938
22.8063
22.7294
22.6622
22.6036
22.5528
22.5089
22.471
22.4386
22.4109
22.3872
22.3671
22.35
22.3355
22.3232
22.3126
22.3034
22.2954
22.2882
22.2815
22.2752
22.2691
22.2629
22.2565
22.2497
22.2425
22.2346
22.226
22.2166
22.2064
22.1953
22.183
22.1638
22.1073
21.959
22.6645
4136.38
-551.023
-324.818
-96.2571
-18.0751
6.04139
14.5965
18.7346
21.5219
23.8216
25.882
27.7728
29.5111
31.0987
32.5341
33.8155
34.9423
35.915
36.7358
37.408
37.9363
38.3265
38.5853
38.7203
38.7398
38.6524
38.4673
38.1938
37.8414
37.4196
36.9376
36.4047
35.8295
35.2207
34.5862
33.9335
33.2697
32.6012
31.9337
31.2727
30.6227
29.9879
29.3716
28.7769
28.2061
27.6611
27.1433
26.6537
26.1929
25.7611
25.3582
24.9839
24.6374
24.3181
24.0249
23.7568
23.5124
23.2906
23.09
22.9093
22.747
22.6018
22.4725
22.3576
22.256
22.1665
22.0879
22.0192
21.9594
21.9075
21.8627
21.8242
21.7911
21.763
21.739
21.7187
21.7016
21.6871
21.6749
21.6645
21.6557
21.648
21.6413
21.6353
21.6297
21.6243
21.619
21.6135
21.6078
21.6017
21.5951
21.5878
21.5799
21.5712
21.5617
21.5511
21.5345
21.4861
21.3628
22.0041
4136.38
-551.015
-324.805
-96.2387
-18.0523
6.06785
14.6257
18.7655
21.5532
23.8521
25.9102
27.7974
29.5304
31.1112
32.5383
33.8098
34.9251
35.8849
36.6913
37.3478
37.8592
38.2312
38.4709
38.5858
38.5843
38.4754
38.2681
37.9721
37.5969
37.1521
36.6472
36.0914
35.4936
34.8625
34.2061
33.5321
32.8474
32.1588
31.4719
30.7923
30.1245
29.4726
28.8402
28.2302
27.6451
27.0866
26.5562
26.0548
25.5831
25.1411
24.7289
24.3459
23.9916
23.665
23.3653
23.0911
22.8414
22.6147
22.4097
22.225
22.0593
21.911
21.7789
21.6616
21.5578
21.4664
21.3862
21.3161
21.2551
21.2022
21.1566
21.1173
21.0837
21.0551
21.0309
21.0104
20.9932
20.9788
20.9666
20.9565
20.948
20.9407
20.9345
20.929
20.9241
20.9195
20.915
20.9105
20.9059
20.9009
20.8955
20.8896
20.883
20.8759
20.868
20.8591
20.8451
20.804
20.7029
21.2842
4136.38
-551.013
-324.802
-96.2353
-18.0486
6.07122
14.6278
18.7655
21.5501
23.8446
25.8972
27.7775
29.5024
31.0737
32.4899
33.7492
34.851
35.7961
36.5865
37.2259
37.719
38.0719
38.2916
38.3857
38.3628
38.2319
38.0024
37.6838
37.2859
36.8183
36.2907
35.7124
35.0924
34.4395
33.7617
33.0669
32.3621
31.6539
30.9483
30.2507
29.5657
28.8976
28.2497
27.6251
27.0262
26.4548
25.9123
25.3997
24.9175
24.4659
24.0448
23.6536
23.2918
22.9584
22.6524
22.3726
22.1177
21.8864
21.6773
21.4889
21.3198
21.1685
21.0338
20.9142
20.8084
20.7152
20.6335
20.562
20.4999
20.446
20.3995
20.3596
20.3255
20.2966
20.272
20.2514
20.2341
20.2197
20.2077
20.1977
20.1895
20.1827
20.1769
20.172
20.1677
20.1638
20.1602
20.1566
20.1529
20.1491
20.1449
20.1403
20.1351
20.1294
20.1232
20.116
20.1043
20.0699
19.9881
20.5139
4136.38
-551.018
-324.809
-96.2451
-18.0619
6.05392
14.6058
18.738
21.5161
23.8031
25.8472
27.718
29.4321
30.9916
32.3947
33.6399
34.7264
35.655
36.4281
37.0491
37.5231
37.856
38.055
38.1278
38.0832
37.9302
37.6783
37.3372
36.9167
36.4266
35.8767
35.2763
34.6347
33.9604
33.262
32.547
31.8227
31.0957
30.372
29.6571
28.9557
28.2718
27.6092
26.9706
26.3585
25.7748
25.2208
24.6975
24.2054
23.7447
23.315
22.9161
22.5472
22.2073
21.8954
21.6102
21.3505
21.1148
20.9017
20.7098
20.5375
20.3835
20.2462
20.1244
20.0167
19.9219
19.8387
19.766
19.7027
19.6479
19.6007
19.5602
19.5256
19.4962
19.4714
19.4506
19.4332
19.4188
19.4069
19.3972
19.3892
19.3827
19.3774
19.3731
19.3694
19.3662
19.3634
19.3607
19.358
19.3552
19.3521
19.3488
19.345
19.3407
19.336
19.3304
19.321
19.2926
19.2276
19.7023
4136.38
-551.027
-324.824
-96.2667
-18.0902
6.01834
14.5624
18.686
21.4548
23.7317
25.7648
27.6235
29.3247
30.8702
32.2584
33.4877
34.5574
35.4684
36.2229
36.8246
37.2786
37.5909
37.7687
37.8199
37.7534
37.5782
37.304
36.9405
36.4977
35.9856
35.4137
34.7918
34.129
33.4341
32.7155
31.981
31.2379
30.4928
29.7518
29.0203
28.303
27.6042
26.9274
26.2755
25.6509
25.0555
24.4906
23.9571
23.4556
22.9861
22.5485
22.1422
21.7665
21.4205
21.1029
20.8127
20.5484
20.3086
20.0918
19.8965
19.7213
19.5646
19.425
19.3011
19.1916
19.0952
19.0106
18.9366
18.8724
18.8167
18.7687
18.7276
18.6925
18.6628
18.6377
18.6167
18.5993
18.5849
18.5731
18.5635
18.5558
18.5497
18.5448
18.5409
18.5378
18.5353
18.5332
18.5313
18.5296
18.5278
18.5258
18.5237
18.5212
18.5184
18.5151
18.5111
18.5038
18.4806
18.43
18.8581
4136.37
-551.04
-324.847
-96.2987
-18.1317
5.96678
14.5003
18.6128
21.3698
23.6341
25.6539
27.4986
29.1849
30.7147
32.0865
33.2984
34.3501
35.2423
35.9773
36.559
36.9924
37.2836
37.4399
37.4695
37.381
37.1837
36.8873
36.5018
36.0371
35.5032
34.91
34.267
33.5837
32.8688
32.1308
31.3775
30.6162
29.8538
29.0961
28.3487
27.6164
26.9033
26.213
25.5483
24.9118
24.3053
23.73
23.1869
22.6765
22.1988
21.7535
21.3403
20.9582
20.6064
20.2836
19.9886
19.72
19.4762
19.2559
19.0575
18.8795
18.7203
18.5785
18.4527
18.3414
18.2435
18.1575
18.0825
18.0172
17.9607
17.9121
17.8704
17.8348
17.8047
17.7794
17.7582
17.7407
17.7263
17.7146
17.7052
17.6977
17.6919
17.6874
17.6839
17.6814
17.6795
17.6781
17.677
17.6761
17.6752
17.6744
17.6733
17.6721
17.6705
17.6687
17.6662
17.6608
17.6424
17.6039
17.9894
4136.37
-551.058
-324.876
-96.3395
-18.1846
5.90148
14.4221
18.5213
21.2643
23.5142
25.5189
27.3477
29.0176
30.5302
31.8842
33.0777
34.1103
34.9829
35.6978
36.2589
36.6712
36.9411
37.0759
37.0836
36.9732
36.754
36.4358
36.0286
35.5424
34.9873
34.3733
33.71
33.0067
32.2725
31.5158
30.7444
29.9658
29.1867
28.4131
27.6506
26.9038
26.1771
25.474
24.7973
24.1495
23.5324
22.9473
22.3951
21.8762
21.3907
20.9383
20.5185
20.1305
19.7732
19.4454
19.1459
18.8732
18.6258
18.4022
18.2008
18.0202
17.8586
17.7148
17.5871
17.4742
17.3748
17.2876
17.2115
17.1453
17.088
17.0387
16.9964
16.9605
16.93
16.9044
16.8831
16.8654
16.851
16.8393
16.8301
16.8228
16.8172
16.8131
16.8101
16.808
16.8067
16.8059
16.8055
16.8054
16.8055
16.8056
16.8056
16.8055
16.8052
16.8046
16.8035
16.8
16.7857
16.7573
17.1044
4136.36
-551.079
-324.91
-96.3878
-18.2471
5.82456
14.3304
18.4143
21.1417
23.3754
25.3634
27.175
28.8271
30.3215
31.6566
32.8308
33.8436
34.696
35.3903
35.9304
36.3215
36.57
36.6831
36.6692
36.5371
36.2963
35.9567
35.5282
35.021
34.4454
33.8111
33.1281
32.4057
31.6529
30.8782
30.0895
29.2943
28.4992
27.7104
26.9335
26.1731
25.4334
24.7181
24.03
23.3715
22.7444
22.1501
21.5893
21.0624
20.5696
20.1105
19.6845
19.2908
18.9284
18.5959
18.2922
18.0157
17.7648
17.5381
17.334
17.1508
16.9871
16.8413
16.7118
16.5974
16.4967
16.4084
16.3312
16.2642
16.2061
16.1561
16.1133
16.0769
16.0461
16.0202
15.9987
15.981
15.9665
15.9549
15.9457
15.9386
15.9333
15.9294
15.9268
15.9252
15.9243
15.9241
15.9244
15.9251
15.9259
15.9269
15.9279
15.9288
15.9297
15.9303
15.9306
15.9288
15.918
15.898
16.2102
4136.35
-551.102
-324.949
-96.4423
-18.3175
5.73805
14.2275
18.2946
21.005
23.2211
25.1912
26.9845
28.6178
30.0931
31.4086
32.5628
33.5553
34.3871
35.0605
35.5794
35.9493
36.1763
36.268
36.2327
36.0792
35.8173
35.4566
35.0074
34.4799
33.8843
33.2306
32.5286
31.7877
31.017
30.2251
29.4199
28.6087
27.7985
26.9953
26.2046
25.4313
24.6794
23.9526
23.2537
22.5851
21.9486
21.3455
20.7766
20.2423
19.7425
19.2771
18.8453
18.4463
18.0791
17.7423
17.4345
17.1544
16.9004
16.6708
16.464
16.2785
16.1127
15.9651
15.834
15.7182
15.6162
15.5267
15.4486
15.3807
15.3219
15.2713
15.228
15.1912
15.16
15.1339
15.1122
15.0943
15.0798
15.0682
15.0591
15.0521
15.047
15.0434
15.0411
15.0398
15.0394
15.0398
15.0407
15.0419
15.0435
15.0453
15.0472
15.0491
15.051
15.0528
15.0542
15.054
15.0463
15.0332
15.314
4136.34
-551.128
-324.991
-96.5018
-18.3943
5.64384
14.1156
18.1648
20.8569
23.0546
25.0058
26.7799
28.3937
29.8492
31.1446
32.2784
33.2503
34.0612
34.7136
35.2115
35.5601
35.7659
35.8365
35.7801
35.6057
35.3231
34.942
34.4727
33.9255
33.3106
32.6381
31.9179
31.1593
30.3716
29.5632
28.7422
27.916
27.0913
26.2744
25.4708
24.6851
23.9217
23.184
22.4749
21.7968
21.1514
20.5401
19.9636
19.4223
18.9161
18.4447
18.0075
17.6035
17.2318
16.8908
16.5794
16.2959
16.0389
15.8066
15.5974
15.4097
15.242
15.0926
14.96
14.8428
14.7396
14.6491
14.5701
14.5014
14.442
14.3908
14.347
14.3097
14.2782
14.2518
14.2299
14.2119
14.1973
14.1857
14.1766
14.1697
14.1647
14.1613
14.1593
14.1584
14.1584
14.1592
14.1606
14.1625
14.1647
14.1672
14.1699
14.1727
14.1755
14.1783
14.1809
14.182
14.177
14.1695
14.4219
4136.33
-551.155
-325.036
-96.5652
-18.4759
5.54371
13.9968
18.0272
20.7003
22.8786
24.8103
26.5647
28.1586
29.5938
30.8688
31.982
32.9332
33.7232
34.3547
34.8316
35.1593
35.3442
35.394
35.317
35.1223
34.8195
34.4186
33.9299
33.3637
32.7303
32.0398
31.302
30.5266
29.7226
28.8985
28.0625
27.222
26.3837
25.5538
24.7379
23.9407
23.1663
22.4184
21.6997
21.0127
20.359
19.74
19.1563
18.6084
18.0962
17.6193
17.177
16.7684
16.3924
16.0476
15.7327
15.4461
15.1863
14.9514
14.74
14.5503
14.3807
14.2297
14.0957
13.9773
13.8729
13.7815
13.7016
13.6321
13.572
13.5203
13.476
13.4383
13.4065
13.3798
13.3577
13.3395
13.3248
13.3132
13.3041
13.2973
13.2924
13.2892
13.2874
13.2867
13.2871
13.2883
13.2901
13.2925
13.2953
13.2984
13.3018
13.3054
13.309
13.3127
13.3163
13.3186
13.316
13.3129
13.5398
4136.33
-551.183
-325.084
-96.6314
-18.5612
5.43928
13.8731
17.8841
20.5375
22.6961
24.6078
26.3421
27.9157
29.3305
30.585
31.6777
32.6081
33.3774
33.9882
34.4445
34.7516
34.9161
34.9456
34.8485
34.634
34.3118
33.8918
33.3844
32.8
32.1488
31.441
30.6866
29.8951
29.0756
28.2367
27.3864
26.5323
25.6812
24.8391
24.0116
23.2034
22.4188
21.6613
20.9336
20.2382
19.5768
18.9505
18.3602
17.8061
17.2882
16.8061
16.3591
15.9462
15.5663
15.218
14.8998
14.6103
14.3478
14.1106
13.8971
13.7055
13.5342
13.3817
13.2464
13.1267
13.0214
12.929
12.8483
12.7781
12.7174
12.6651
12.6203
12.5823
12.5501
12.5231
12.5008
12.4825
12.4677
12.4559
12.4468
12.4401
12.4353
12.4322
12.4305
12.4301
12.4307
12.4322
12.4344
12.4372
12.4405
12.4442
12.4482
12.4524
12.4568
12.4613
12.4657
12.4691
12.4685
12.4689
12.6728
4136.32
-551.212
-325.132
-96.6994
-18.6488
5.33205
13.7462
17.7373
20.3708
22.5094
24.401
26.115
27.6683
29.0627
30.2968
31.369
32.279
33.0279
33.6183
34.0543
34.3413
34.4859
34.4957
34.3792
34.1456
33.8046
33.3663
32.841
32.2391
31.571
30.8468
30.0766
29.2697
28.4355
27.5826
26.7189
25.852
24.9887
24.1351
23.2967
22.4783
21.6841
20.9175
20.1815
19.4782
18.8095
18.1765
17.58
17.0202
16.497
16.0101
15.5587
15.1417
14.7582
14.4065
14.0854
13.7932
13.5282
13.2888
13.0733
12.88
12.7072
12.5532
12.4167
12.2959
12.1896
12.0963
12.0148
11.944
11.8826
11.8298
11.7846
11.7462
11.7137
11.6865
11.6639
11.6454
11.6304
11.6186
11.6094
11.6027
11.5979
11.5949
11.5933
11.5931
11.5939
11.5956
11.5982
11.6013
11.605
11.6092
11.6137
11.6185
11.6235
11.6287
11.6338
11.6382
11.6393
11.6425
11.8255
4136.31
-551.242
-325.182
-96.7685
-18.7376
5.22336
13.6176
17.5887
20.2022
22.3207
24.1922
25.8861
27.4192
28.7934
30.0072
31.0593
31.9492
32.6781
33.2487
33.6649
33.9324
34.0577
34.0485
33.9133
33.6614
33.3024
32.8465
32.3041
31.6856
31.0013
30.2615
29.4762
28.6549
27.8069
26.9406
26.0643
25.1854
24.3106
23.4462
22.5976
21.7697
20.9664
20.1915
19.4476
18.737
18.0615
17.4222
16.8199
16.2548
15.7267
15.2353
14.7798
14.3591
13.9721
13.6174
13.2935
12.9988
12.7316
12.4902
12.2728
12.0778
11.9036
11.7483
11.6106
11.4888
11.3815
11.2874
11.2052
11.1337
11.0719
11.0186
10.9729
10.9341
10.9012
10.8737
10.8509
10.8322
10.8171
10.8052
10.796
10.7891
10.7843
10.7813
10.7799
10.7797
10.7807
10.7826
10.7854
10.7888
10.7929
10.7974
10.8023
10.8075
10.8131
10.8188
10.8247
10.8298
10.8323
10.8376
11.002
4136.3
-551.272
-325.231
-96.8377
-18.8267
5.11443
13.4888
17.44
20.0336
22.1321
23.9837
25.6576
27.1708
28.5252
29.7192
30.7516
31.6219
32.3313
32.8825
33.2797
33.5284
33.6351
33.6076
33.4544
33.1849
32.8087
32.3361
31.7774
31.1431
30.4435
29.689
28.8894
28.0545
27.1934
26.3146
25.4264
24.5362
23.6507
22.7762
21.9181
21.0812
20.2696
19.4867
18.7355
18.0182
17.3364
16.6913
16.0835
15.5135
14.9809
14.4853
14.026
13.6019
13.2117
12.8542
12.5277
12.2307
11.9613
11.718
11.499
11.3025
11.1269
10.9704
10.8316
10.7088
10.6007
10.5058
10.423
10.3509
10.2884
10.2347
10.1886
10.1494
10.1162
10.0885
10.0654
10.0465
10.0312
10.0191
10.0098
10.0029
9.99805
9.99504
9.9936
9.99351
9.99458
9.99664
9.99956
10.0032
10.0075
10.0123
10.0175
10.0232
10.0291
10.0353
10.0417
10.0475
10.0512
10.0581
10.2056
4136.29
-551.301
-325.28
-96.9065
-18.9152
5.0063
13.361
17.2926
19.8665
21.9454
23.7774
25.4318
26.9254
28.2604
29.4352
30.4483
31.2996
31.9902
32.5228
32.9016
33.1321
33.221
33.176
33.0057
32.7194
32.3269
31.8384
31.2642
30.6149
29.9009
29.1324
28.3195
27.4718
26.5983
25.7079
24.8085
23.9077
23.0123
22.1283
21.2613
20.416
19.5966
18.8065
18.0485
17.3248
16.6371
15.9866
15.3739
14.7992
14.2625
13.763
13.3002
12.8729
12.4799
12.1197
11.7909
11.4916
11.2204
10.9753
10.7547
10.5568
10.3799
10.2224
10.0825
9.95888
9.84995
9.75437
9.67085
9.59818
9.53524
9.48101
9.43454
9.39496
9.36149
9.33342
9.3101
9.29097
9.27551
9.26325
9.25379
9.24677
9.24188
9.23882
9.23735
9.23727
9.23838
9.24051
9.24353
9.24731
9.25175
9.25676
9.26225
9.26817
9.27445
9.28103
9.28779
9.29418
9.29881
9.30693
9.43917
4136.28
-551.33
-325.328
-96.9742
-19.0022
4.89993
13.2353
17.1476
19.7023
21.762
23.5749
25.2102
26.685
28.0011
29.1572
30.1519
30.9848
31.6573
32.172
32.5332
32.7463
32.8182
32.7565
32.5699
32.2677
31.8596
31.3561
30.7673
30.1039
29.3763
28.5947
27.7692
26.9094
26.0245
25.1231
24.2133
23.3027
22.3979
21.5051
20.6298
19.7768
18.9501
18.1532
17.3889
16.6594
15.9663
15.3108
14.6935
14.1146
13.5739
13.071
12.6049
12.1746
11.7789
11.4164
11.0853
10.7841
10.5111
10.2644
10.0424
9.84317
9.66511
9.5065
9.36572
9.24123
9.13156
9.03531
8.95118
8.87797
8.81455
8.75988
8.71301
8.67307
8.63928
8.61092
8.58735
8.56799
8.55232
8.53988
8.53027
8.52312
8.51811
8.51497
8.51344
8.51332
8.51441
8.51656
8.51962
8.52348
8.52802
8.53315
8.53881
8.54492
8.55143
8.55829
8.56535
8.57217
8.57757
8.58653
8.70504
4136.27
-551.359
-325.376
-97.0403
-19.0872
4.79608
13.1126
17.0062
19.5422
21.5833
23.3777
24.9946
26.4511
27.7491
28.8872
29.864
30.6794
31.3345
31.8321
32.1764
32.3731
32.4287
32.3512
32.1492
31.8319
31.4093
30.8915
30.289
29.6123
28.8719
28.0781
27.2408
26.3698
25.4741
24.5625
23.643
22.7232
21.8097
20.9088
20.0258
19.1656
18.3322
17.529
16.7589
16.024
15.3259
14.6658
14.0442
13.4614
12.9172
12.4109
11.9419
11.5089
11.1108
10.7459
10.4129
10.1099
9.83517
9.58703
9.36366
9.16327
8.98414
8.82456
8.68292
8.55765
8.44728
8.3504
8.26571
8.19198
8.1281
8.07301
8.02576
7.98548
7.95137
7.92273
7.89889
7.87929
7.8634
7.85077
7.84098
7.83367
7.82852
7.82526
7.82364
7.82343
7.82447
7.82658
7.82963
7.8335
7.83807
7.84327
7.84901
7.85524
7.8619
7.86893
7.87621
7.88334
7.88934
7.89885
8.00497
4136.26
-551.386
-325.421
-97.1044
-19.1696
4.69544
12.9938
16.8693
19.3872
21.4104
23.1869
24.7862
26.225
27.5056
28.6265
29.5864
30.3849
31.0235
31.5048
31.8332
32.0142
32.0545
31.9621
31.7454
31.414
30.9776
30.4465
29.8311
29.142
28.3896
27.5843
26.7361
25.8545
24.9489
24.0278
23.0993
22.1709
21.2494
20.3409
19.4509
18.584
17.7444
16.9354
16.1599
15.42
14.7173
14.053
13.4275
12.8411
12.2936
11.7844
11.3126
10.8771
10.4767
10.1098
9.77488
9.4702
9.19401
8.94451
8.71991
8.51842
8.3383
8.17783
8.03539
7.9094
7.79838
7.70091
7.61569
7.54148
7.47716
7.42167
7.37405
7.33344
7.29902
7.27009
7.24599
7.22614
7.21002
7.19718
7.18719
7.1797
7.17439
7.17098
7.16922
7.1689
7.16984
7.17187
7.17485
7.17867
7.18322
7.18842
7.19418
7.20045
7.20717
7.21429
7.2217
7.22904
7.23549
7.24532
7.34027
4136.25
-551.413
-325.466
-97.1662
-19.249
4.59856
12.8795
16.7375
19.2382
21.2442
23.0036
24.5859
26.008
27.272
28.3765
29.3202
30.1028
30.7257
31.1916
31.5049
31.6711
31.697
31.5905
31.3601
31.0153
30.566
30.0224
29.395
28.6943
27.9308
27.1148
26.2564
25.3651
24.4502
23.5202
22.5834
21.6472
20.7182
19.8027
18.9061
18.0331
17.1878
16.3735
15.5931
14.8486
14.1417
13.4734
12.8443
12.2546
11.7041
11.1921
10.7178
10.2801
9.87759
9.50884
9.17221
8.86599
8.58841
8.33767
8.11194
7.90945
7.72841
7.56713
7.42394
7.29729
7.18566
7.08764
7.00192
6.92726
6.86252
6.80665
6.75868
6.71774
6.68302
6.6538
6.62943
6.60933
6.59298
6.57991
6.56971
6.56202
6.55653
6.55294
6.55102
6.55055
6.55135
6.55326
6.55613
6.55985
6.56433
6.56946
6.57518
6.58142
6.58813
6.59527
6.60272
6.61017
6.61693
6.6269
6.71177
4136.24
-551.438
-325.508
-97.2253
-19.3249
4.50586
12.7701
16.6115
19.0957
21.0853
22.8284
24.3947
25.8008
27.0491
28.1381
29.0664
29.834
30.4421
30.8935
31.1926
31.3449
31.3572
31.2375
30.9943
30.6371
30.1757
29.6205
28.9819
28.2704
27.4965
26.6706
25.8027
24.9023
23.9788
23.0408
22.0962
21.1527
20.2169
19.295
18.3923
17.5137
16.6631
15.8439
15.0589
14.3102
13.5994
12.9276
12.2952
11.7025
11.1492
10.6347
10.1581
9.71832
9.31393
8.94346
8.60528
8.29766
8.01881
7.76692
7.54017
7.33674
7.15487
6.99283
6.84896
6.72169
6.6095
6.51097
6.42479
6.3497
6.28456
6.22833
6.18002
6.13876
6.10374
6.07424
6.0496
6.02925
6.01265
5.99935
5.98893
5.98102
5.97532
5.97154
5.96943
5.96878
5.96941
5.97115
5.97388
5.97746
5.98181
5.98682
5.99244
5.9986
6.00524
6.01231
6.01973
6.02721
6.03417
6.04413
6.11991
4136.23
-551.462
-325.548
-97.2815
-19.3971
4.41768
12.666
16.4917
18.9602
20.9343
22.6621
24.213
25.6042
26.8376
27.9119
28.8258
29.5792
30.1734
30.6113
30.897
31.0363
31.036
30.9039
30.6487
30.2799
29.8073
29.2413
28.5922
27.8707
27.0873
26.2522
25.3755
24.4668
23.5354
22.5898
21.6382
20.6879
19.7459
18.818
17.9098
17.026
16.1706
15.3469
14.5578
13.8052
13.0909
12.4158
11.7804
11.185
10.6291
10.1123
9.63363
9.1919
8.78578
8.41374
8.07414
7.76524
7.48524
7.2323
7.0046
6.80033
6.61768
6.45495
6.31046
6.18261
6.0699
5.9709
5.88428
5.80879
5.74328
5.6867
5.63806
5.59649
5.56118
5.5314
5.5065
5.48589
5.46904
5.4555
5.44484
5.43671
5.43079
5.42679
5.42447
5.42362
5.42405
5.4256
5.42814
5.43155
5.43572
5.44058
5.44604
5.45206
5.45857
5.46552
5.47284
5.48027
5.48732
5.49716
5.56475
4136.22
-551.485
-325.586
-97.3348
-19.4655
4.33426
12.5676
16.3784
18.8321
20.7916
22.5049
24.0415
25.4185
26.6379
27.6985
28.5989
29.3391
29.9202
30.3453
30.6186
30.7458
30.7337
30.5901
30.3238
29.9443
29.4613
28.8852
28.2265
27.4958
26.7034
25.8599
24.9751
24.0588
23.12
22.1675
21.2094
20.253
19.3051
18.3719
17.4586
16.5701
15.7102
14.8825
14.0895
13.3334
12.6159
11.9377
11.2996
10.7017
10.1436
9.62465
9.14404
8.70058
8.29288
7.91941
7.57852
7.26845
6.98739
6.7335
6.50494
6.29988
6.11653
5.95316
5.80809
5.67972
5.56652
5.46708
5.38005
5.30418
5.23832
5.18141
5.13246
5.0906
5.055
5.02495
4.99978
4.97892
4.96182
4.94803
4.93713
4.92876
4.9226
4.91837
4.91582
4.91474
4.91495
4.91629
4.91861
4.92181
4.92578
4.93043
4.9357
4.94153
4.94786
4.95464
4.9618
4.96912
4.97616
4.98577
5.04599
4136.22
-551.506
-325.622
-97.3848
-19.5298
4.25575
12.475
16.2718
18.7117
20.6574
22.3571
23.8803
25.244
26.4504
27.4981
28.3859
29.1137
29.6828
30.096
30.3577
30.4736
30.4506
30.2964
30.0198
29.6303
29.1377
28.5523
27.8848
27.1455
26.345
25.4936
24.6014
23.678
22.7326
21.7738
20.8097
19.8477
18.8945
17.9563
17.0384
16.1455
15.2816
14.4501
13.6537
12.8944
12.1739
11.4931
10.8525
10.2522
9.692
9.17118
8.68884
8.2438
7.83466
7.4599
7.11783
6.80669
6.52466
6.2699
6.04056
5.83479
5.6508
5.48684
5.34123
5.21237
5.09873
4.99888
4.91147
4.83525
4.76906
4.71183
4.66258
4.62043
4.58456
4.55424
4.52882
4.50769
4.49035
4.47631
4.46516
4.45655
4.45014
4.44567
4.44288
4.44155
4.44152
4.44261
4.4447
4.44766
4.45139
4.45581
4.46085
4.46645
4.47255
4.47911
4.48606
4.4932
4.50017
4.50949
4.56307
4136.21
-551.527
-325.655
-97.4318
-19.5901
4.18224
12.3883
16.1721
18.5989
20.5318
22.2188
23.7295
25.0809
26.2751
27.3109
28.187
28.9033
29.4611
29.8633
30.1144
30.2198
30.1866
30.0226
29.7365
29.3378
28.8364
28.2425
27.5668
26.8197
26.0117
25.1532
24.2542
23.3243
22.3728
21.4082
20.4386
19.4714
18.5134
17.5707
16.6486
15.7518
14.8842
14.0493
13.2497
12.4876
11.7643
11.081
10.4382
9.83582
9.2737
8.75115
8.26723
7.82075
7.41031
7.03436
6.69122
6.37911
6.09621
5.84066
5.61059
5.40417
5.21959
5.0551
4.909
4.77969
4.66564
4.56541
4.47764
4.40109
4.33458
4.27706
4.22753
4.1851
4.14897
4.11839
4.09271
4.07133
4.05373
4.03944
4.02805
4.01918
4.01253
4.0078
4.00475
4.00318
4.00288
4.00372
4.00554
4.00824
4.01171
4.01587
4.02065
4.02598
4.03183
4.03813
4.04483
4.05174
4.05857
4.06753
4.11515
4136.2
-551.545
-325.687
-97.4755
-19.6462
4.11373
12.3076
16.0791
18.4939
20.4149
22.0901
23.5892
24.9291
26.1121
27.1368
28.002
28.7076
29.255
29.6472
29.8883
29.9842
29.9416
29.7686
29.4738
29.0666
28.5571
27.9554
27.2722
26.5179
25.703
24.838
23.9328
22.997
22.0399
21.07
20.0955
19.1236
18.1612
17.2144
16.2884
15.388
14.5171
13.6791
12.8767
12.1119
11.3862
10.7006
10.0557
9.4515
8.88766
8.36354
7.87819
7.4304
7.01878
6.64176
6.29764
5.98466
5.70096
5.44468
5.21396
5.00695
4.82183
4.65684
4.51029
4.38057
4.26614
4.16555
4.07745
4.00059
3.93379
3.87598
3.82618
3.7835
3.7471
3.71627
3.69034
3.66872
3.65087
3.63633
3.62469
3.61557
3.60866
3.60367
3.60036
3.59852
3.59796
3.59852
3.60007
3.60249
3.60568
3.60956
3.61405
3.6191
3.62465
3.63066
3.63707
3.64372
3.65035
3.65891
3.70118
4136.2
-551.563
-325.716
-97.5161
-19.6983
4.05017
12.2326
15.9929
18.3966
20.3065
21.9708
23.4591
24.7885
25.961
26.9755
27.8307
28.5265
29.0644
29.4472
29.6793
29.7663
29.7152
29.5339
29.2311
28.8162
28.2992
27.6904
27.0003
26.2395
25.4184
24.5474
23.6365
22.6954
21.7332
20.7585
19.7794
18.8033
17.8369
16.8864
15.9569
15.0532
14.1794
13.3385
12.5335
11.7663
11.0384
10.3508
9.70404
9.09811
8.53271
8.00716
7.52051
7.07155
6.65886
6.28086
5.93586
5.62207
5.33765
5.08072
4.8494
4.64185
4.45623
4.29079
4.14384
4.01373
3.89895
3.79803
3.70963
3.63247
3.56539
3.50732
3.45726
3.41432
3.37769
3.34661
3.32044
3.29857
3.28048
3.2657
3.2538
3.24443
3.23727
3.23202
3.22844
3.22633
3.22549
3.22577
3.22704
3.22917
3.23206
3.23564
3.23982
3.24456
3.2498
3.25549
3.26159
3.26794
3.27432
3.28245
3.31992
4136.19
-551.579
-325.742
-97.5536
-19.7465
3.99148
12.1634
15.9133
18.3067
20.2064
21.8607
23.3391
24.6587
25.8217
26.8268
27.6728
28.3597
28.8888
29.263
29.4867
29.5657
29.5068
29.3179
29.0078
28.5859
28.0621
27.4468
26.7505
25.9837
25.1569
24.2805
23.3645
22.4185
21.4517
20.4726
19.4895
18.5095
17.5395
16.5855
15.6529
14.7463
13.8697
13.0264
12.219
11.4496
10.7197
10.0303
9.38182
8.77434
8.20753
7.68069
7.19287
6.74283
6.32917
5.95029
5.6045
5.28998
5.0049
4.74737
4.51551
4.30746
4.1214
3.95554
3.80821
3.67775
3.56264
3.46142
3.37273
3.2953
3.22796
3.16964
3.11934
3.07616
3.03929
3.00798
2.98157
2.95946
2.94114
2.92611
2.91397
2.90435
2.89693
2.89142
2.88758
2.88519
2.88407
2.88407
2.88504
2.88687
2.88946
2.89272
2.89659
2.901
2.90591
2.91127
2.91702
2.92305
2.92915
2.93683
2.96999
4136.19
-551.594
-325.767
-97.5881
-19.7907
3.9375
12.0998
15.8402
18.2241
20.1145
21.7595
23.2289
24.5395
25.6938
26.6903
27.5279
28.2065
28.7276
29.094
29.3102
29.3818
29.3158
29.12
28.8032
28.3749
27.845
27.2238
26.5218
25.7496
24.9177
24.0364
23.1157
22.1653
21.1943
20.2113
19.2244
18.241
17.2677
16.3107
15.3752
14.466
13.5869
12.7413
11.9317
11.1604
10.4287
9.73764
9.08765
8.47878
7.91069
7.38269
6.8938
6.4428
6.02826
5.64858
5.30206
4.98688
4.7012
4.44313
4.21078
4.00228
3.8158
3.64957
3.50188
3.3711
3.25569
3.15419
3.06523
2.98755
2.91997
2.86141
2.81087
2.76747
2.73037
2.69883
2.6722
2.64987
2.6313
2.61604
2.60366
2.5938
2.58612
2.58035
2.57624
2.57358
2.57218
2.57189
2.57257
2.57409
2.57637
2.57931
2.58285
2.58693
2.5915
2.59651
2.60191
2.6076
2.61339
2.62061
2.64992
4136.18
-551.607
-325.79
-97.6196
-19.8312
3.88808
12.0416
15.7732
18.1484
20.0303
21.6669
23.128
24.4305
25.5768
26.5654
27.3954
28.0666
28.5803
28.9397
29.149
29.2139
29.1414
28.9393
28.6165
28.1824
27.6469
27.0204
26.3133
25.5362
24.6996
23.8139
22.889
21.9346
20.9599
19.9733
18.9831
17.9965
17.0203
16.0605
15.1225
14.2108
13.3295
12.4818
11.6704
10.8973
10.164
9.47142
8.82005
8.20992
7.64068
7.11163
6.62178
6.1699
5.75456
5.37416
5.02698
4.71121
4.42499
4.16642
3.93361
3.7247
3.53784
3.37127
3.22326
3.09218
2.97649
2.87473
2.78552
2.7076
2.63979
2.58101
2.53026
2.48663
2.44932
2.41757
2.39072
2.36816
2.34938
2.33389
2.32127
2.31116
2.30324
2.29721
2.29284
2.28991
2.28824
2.28766
2.28803
2.28925
2.29122
2.29384
2.29705
2.30079
2.30501
2.30966
2.3147
2.32004
2.3255
2.33225
2.35811
4136.18
-551.62
-325.81
-97.6484
-19.8682
3.84301
11.9885
15.7121
18.0795
19.9536
21.5826
23.0361
24.3312
25.4702
26.4518
27.2748
27.9391
28.4463
28.7992
29.0023
29.0612
28.9828
28.7751
28.4469
28.0075
27.467
26.8356
26.1239
25.3424
24.5017
23.6119
22.6833
21.7253
20.7471
19.7574
18.7642
17.7748
16.7959
15.8337
14.8933
13.9795
13.0962
12.2466
11.4335
10.6588
9.92401
9.23009
8.57748
7.96622
7.39593
6.86593
6.37521
5.92255
5.50649
5.12543
4.77765
4.46134
4.17462
3.9156
3.68238
3.47309
3.28589
3.11899
2.97069
2.83934
2.72339
2.62138
2.53195
2.4538
2.38578
2.32678
2.27583
2.232
2.19448
2.16252
2.13546
2.1127
2.0937
2.07798
2.06514
2.0548
2.04663
2.04036
2.03573
2.03253
2.03058
2.02972
2.0298
2.03072
2.03237
2.03467
2.03755
2.04095
2.04482
2.04912
2.05379
2.05876
2.06389
2.07016
2.09295
4136.18
-551.631
-325.829
-97.6746
-19.9018
3.80207
11.9402
15.6566
18.0169
19.8839
21.506
22.9527
24.2411
25.3735
26.3486
27.1654
27.8236
28.3248
28.6719
28.8693
28.9228
28.8391
28.6264
28.2932
27.8492
27.3041
26.6684
25.9526
25.1671
24.3226
23.4293
22.4972
21.536
20.5548
19.5623
18.5663
17.5744
16.5931
15.6287
14.6862
13.7705
12.8854
12.0342
11.2195
10.4433
9.70724
9.0121
8.35838
7.74609
7.17486
6.644
6.1525
5.69911
5.2824
4.90075
4.55243
4.23562
3.94845
3.68902
3.45542
3.24579
3.05827
2.89108
2.7425
2.6109
2.49471
2.39248
2.30282
2.22447
2.15625
2.09705
2.0459
2.00188
1.96417
1.93202
1.90476
1.88179
1.86258
1.84665
1.83359
1.82302
1.81462
1.80811
1.80323
1.79977
1.79755
1.79641
1.79621
1.79683
1.79817
1.80015
1.80271
1.80577
1.80929
1.81323
1.81754
1.82214
1.82692
1.83273
1.85278
4136.17
-551.641
-325.846
-97.6983
-19.9322
3.76502
11.8966
15.6065
17.9603
19.8209
21.4367
22.8772
24.1596
25.2861
26.2555
27.0665
27.7193
28.2151
28.557
28.7494
28.7979
28.7095
28.4922
28.1547
27.7064
27.1573
26.5177
25.7981
25.0092
24.1613
23.2648
22.3297
21.3656
20.3817
19.3865
18.3881
17.3939
16.4106
15.4441
14.4998
13.5823
12.6956
11.8429
11.0268
10.2494
9.51212
8.81589
8.16116
7.54794
6.97587
6.44423
5.95202
5.49798
5.08067
4.69848
4.34966
4.0324
3.74482
3.48501
3.25107
3.04112
2.85331
2.68585
2.53702
2.40518
2.28877
2.18633
2.09647
2.01793
1.94951
1.89014
1.8388
1.7946
1.7567
1.72436
1.69691
1.67375
1.65434
1.63822
1.62494
1.61416
1.60553
1.59878
1.59366
1.58995
1.58747
1.58606
1.58558
1.58591
1.58695
1.58862
1.59085
1.59358
1.59676
1.60035
1.6043
1.60854
1.61297
1.61833
1.63594
4136.17
-551.65
-325.861
-97.7196
-19.9596
3.73162
11.8572
15.5612
17.9092
19.7642
21.3743
22.8093
24.0863
25.2074
26.1716
26.9776
27.6254
28.1164
28.4536
28.6415
28.6856
28.593
28.3716
28.0302
27.5781
27.0254
26.3823
25.6595
24.8673
24.0165
23.1171
22.1793
21.2126
20.2263
19.2289
18.2283
17.2321
16.2468
15.2786
14.3326
13.4136
12.5254
11.6714
10.854
10.0755
9.33712
8.6399
7.98426
7.37021
6.79737
6.26503
5.77217
5.31754
4.8997
4.51701
4.16774
3.85007
3.56211
3.30195
3.0677
2.85745
2.66937
2.50166
2.3526
2.22054
2.10392
2.00128
1.91124
1.83251
1.76392
1.70436
1.65286
1.60848
1.57041
1.53789
1.51027
1.48692
1.46733
1.451
1.43753
1.42654
1.4177
1.41072
1.40537
1.40142
1.39869
1.39701
1.39626
1.39631
1.39706
1.39843
1.40035
1.40276
1.4056
1.40884
1.41244
1.41633
1.42041
1.42532
1.44077
4136.17
-551.658
-325.875
-97.7388
-19.9842
3.70162
11.8219
15.5206
17.8634
19.7132
21.3183
22.7484
24.0205
25.1369
26.0964
26.8978
27.5412
28.028
28.361
28.5448
28.5851
28.4887
28.2637
27.9187
27.4633
26.9074
26.2613
25.5355
24.7405
23.887
22.9851
22.0449
21.0759
20.0874
19.0879
18.0855
17.0875
16.1005
15.1307
14.1832
13.2628
12.3733
11.5181
10.6996
9.92003
9.18071
8.48261
7.82615
7.21134
6.63781
6.10483
5.61138
5.15622
4.73788
4.35474
4.00506
3.68701
3.3987
3.13823
2.90368
2.69316
2.50483
2.33688
2.1876
2.05534
1.93853
1.83571
1.74548
1.66659
1.59783
1.53811
1.48644
1.4419
1.40366
1.37098
1.34319
1.31967
1.29989
1.28339
1.26972
1.25853
1.24948
1.2423
1.23672
1.23254
1.22957
1.22765
1.22663
1.22641
1.22689
1.22797
1.22958
1.23168
1.2342
1.23711
1.24036
1.2439
1.24764
1.25213
1.26565
4136.16
-551.666
-325.887
-97.756
-20.0062
3.67477
11.7903
15.4843
17.8224
19.6676
21.2682
22.6939
23.9616
25.0738
26.0292
26.8266
27.466
27.949
28.2784
28.4586
28.4954
28.3957
28.1674
27.8194
27.361
26.8023
26.1534
25.425
24.6276
23.7717
22.8675
21.9252
20.9542
19.9638
18.9625
17.9584
16.9587
15.9703
14.999
14.0502
13.1286
12.238
11.3816
10.5622
9.78162
9.04144
8.34254
7.68534
7.06985
6.49568
5.96212
5.46814
5.01249
4.59369
4.21014
3.86008
3.54168
3.25305
2.99228
2.75746
2.54669
2.35812
2.18996
2.04048
1.90802
1.79103
1.68803
1.59764
1.51859
1.44967
1.3898
1.33797
1.29328
1.25489
1.22205
1.19409
1.17041
1.15047
1.13378
1.11994
1.10856
1.09932
1.09193
1.08614
1.08174
1.07854
1.07638
1.07512
1.07464
1.07485
1.07565
1.07698
1.07877
1.08098
1.08357
1.08649
1.0897
1.09311
1.09719
1.10901
4136.16
-551.672
-325.898
-97.7713
-20.0259
3.65081
11.7621
15.4519
17.7858
19.627
21.2236
22.6453
23.9092
25.0176
25.9693
26.7632
27.3991
27.8787
28.2048
28.3819
28.4157
28.313
28.0819
27.7312
27.2702
26.7089
26.0577
25.327
24.5274
23.6694
22.7632
21.819
20.8463
19.8542
18.8513
17.8456
16.8446
15.8548
14.8823
13.9323
13.0095
12.1179
11.2606
10.4402
9.65884
8.91788
8.21825
7.56038
6.94427
6.36953
5.83544
5.34097
4.88487
4.46566
4.08172
3.73131
3.41258
3.12365
2.86261
2.62753
2.41653
2.22774
2.05937
1.9097
1.77706
1.6599
1.55674
1.4662
1.38698
1.31792
1.2579
1.20593
1.16109
1.12255
1.08957
1.06146
1.03762
1.01752
1.00067
0.986658
0.975102
0.965676
0.958096
0.95211
0.947502
0.944085
0.941698
0.940202
0.939479
0.939429
0.939966
0.941019
0.942527
0.944443
0.946723
0.949329
0.952212
0.955307
0.959001
0.969311
4136.16
-551.678
-325.908
-97.785
-20.0434
3.62949
11.737
15.423
17.7533
19.5909
21.1839
22.6021
23.8627
24.9677
25.9162
26.7069
27.3398
27.8164
28.1397
28.314
28.3451
28.2398
28.0063
27.6531
27.1898
26.6264
25.973
25.2403
24.4388
23.579
22.6711
21.7252
20.7509
19.7573
18.753
17.7461
16.7437
15.7528
14.7791
13.8281
12.9044
12.0118
11.1536
10.3325
9.55034
8.80868
8.10839
7.44991
6.83324
6.25797
5.72339
5.22847
4.77195
4.35236
3.96807
3.61733
3.2983
3.00909
2.74779
2.51247
2.30124
2.11225
1.94369
1.79383
1.66103
1.5437
1.44038
1.34969
1.27034
1.20113
1.14097
1.08886
1.04389
1.00521
0.972086
0.943834
0.919852
0.8996
0.882598
0.868423
0.8567
0.847102
0.839341
0.833167
0.828364
0.824743
0.822143
0.820425
0.819471
0.81918
0.819467
0.820259
0.821498
0.823133
0.825122
0.827428
0.830005
0.832795
0.836125
0.845102
4136.16
-551.683
-325.917
-97.7971
-20.0589
3.61057
11.7147
15.3975
17.7245
19.5589
21.1488
22.5639
23.8214
24.9236
25.8692
26.6572
27.2874
27.7614
28.0822
28.254
28.2828
28.1753
27.9396
27.5843
27.119
26.5537
25.8985
25.164
24.3609
23.4994
22.5901
21.6427
20.6671
19.6722
18.6666
17.6585
16.6551
15.6631
14.6884
13.7365
12.8119
11.9185
11.0595
10.2376
9.45483
8.71253
8.01165
7.35262
6.73543
6.15968
5.62465
5.12932
4.67241
4.25246
3.86784
3.51679
3.19748
2.908
2.64646
2.41091
2.19947
2.01028
1.84154
1.69151
1.55854
1.44106
1.33759
1.24676
1.16726
1.09792
1.03764
0.985397
0.940291
0.901484
0.868226
0.83984
0.81572
0.795327
0.77818
0.763854
0.751975
0.742214
0.734284
0.727935
0.722948
0.719136
0.716336
0.71441
0.713239
0.712722
0.712773
0.713321
0.714305
0.715675
0.717391
0.719414
0.721701
0.724201
0.727189
0.734991
4136.16
-551.688
-325.924
-97.8078
-20.0727
3.59382
11.695
15.3748
17.699
19.5306
21.1177
22.5302
23.7851
24.8847
25.8278
26.6133
27.2412
27.713
28.0315
28.2013
28.228
28.1186
27.881
27.5239
27.0569
26.4899
25.8331
25.0972
24.2926
23.4297
22.5191
21.5705
20.5936
19.5976
18.591
17.5818
16.5774
15.5845
14.609
13.6563
12.7309
11.8367
10.9771
10.1545
9.37111
8.62824
7.92681
7.26727
6.6496
6.07341
5.53797
5.04225
4.58498
4.1647
3.77976
3.42842
3.10884
2.81912
2.55734
2.32157
2.10993
1.92055
1.75163
1.60144
1.46831
1.35068
1.24707
1.1561
1.07648
1.00701
0.946593
0.894231
0.849001
0.810071
0.776688
0.748175
0.723926
0.7034
0.686117
0.67165
0.659625
0.649713
0.641625
0.635111
0.629953
0.625962
0.622976
0.620856
0.619482
0.618753
0.618584
0.618903
0.619648
0.620771
0.622229
0.623986
0.626002
0.628229
0.630897
0.637665
4136.16
-551.692
-325.931
-97.8173
-20.0848
3.57901
11.6776
15.3548
17.6765
19.5056
21.0903
22.5004
23.753
24.8504
25.7913
26.5748
27.2006
27.6704
27.9871
28.155
28.18
28.0689
27.8297
27.4711
27.0026
26.4342
25.7761
25.0388
24.233
23.369
22.4572
21.5075
20.5296
19.5326
18.5251
17.515
16.5098
15.516
14.5398
13.5863
12.6602
11.7654
10.9051
10.082
9.29804
8.55464
7.85273
7.19272
6.57461
5.99801
5.46218
4.9661
4.50849
4.08789
3.70266
3.35104
3.0312
2.74124
2.47923
2.24326
2.03143
1.84186
1.67277
1.52241
1.38913
1.27136
1.16761
1.07651
0.996759
0.927166
0.866632
0.814151
0.768804
0.729756
0.696255
0.667623
0.643253
0.622602
0.605191
0.590592
0.578431
0.568377
0.560143
0.553476
0.548158
0.544001
0.540841
0.53854
0.536978
0.536052
0.535678
0.535783
0.536307
0.537199
0.538417
0.539926
0.541687
0.543658
0.54603
0.551888
4136.15
-551.696
-325.937
-97.8257
-20.0956
3.56592
11.6622
15.3372
17.6567
19.4835
21.0662
22.4742
23.7248
24.8202
25.7593
26.5409
27.1651
27.6332
27.9482
28.1146
28.1381
28.0256
27.785
27.4251
26.9553
26.3857
25.7265
24.9881
24.1812
23.3162
22.4034
21.4529
20.4741
19.4762
18.4679
17.4571
16.4511
15.4567
14.4797
13.5256
12.5989
11.7035
10.8427
10.0191
9.23457
8.49069
7.78832
7.12788
6.50937
5.93238
5.39619
4.89977
4.44184
4.02094
3.63542
3.28354
2.96345
2.67326
2.41103
2.17486
1.96283
1.77309
1.60383
1.45331
1.31989
1.20197
1.09809
1.00686
0.926984
0.857272
0.796623
0.744028
0.698568
0.659408
0.625795
0.59705
0.572565
0.551798
0.534267
0.519546
0.507257
0.497072
0.488701
0.481892
0.476426
0.472115
0.468795
0.466326
0.464588
0.463481
0.462917
0.462824
0.463142
0.46382
0.464816
0.466094
0.467619
0.469351
0.471449
0.476509
4136.15
-551.699
-325.942
-97.8331
-20.1051
3.55435
11.6486
15.3216
17.6391
19.4641
21.0449
22.4511
23.7
24.7938
25.7313
26.5113
27.134
27.6006
27.9143
28.0794
28.1016
27.9879
27.7461
27.3851
26.9143
26.3437
25.6835
24.9442
24.1364
23.2706
22.357
21.4057
20.4262
19.4276
18.4186
17.4071
16.4005
15.4054
14.4279
13.4733
12.546
11.6501
10.7888
9.96465
9.17971
8.43539
7.7326
7.07177
6.45287
5.87553
5.33899
4.84225
4.38401
3.96282
3.57703
3.22489
2.90456
2.61414
2.3517
2.11533
1.90311
1.7132
1.54377
1.3931
1.25953
1.14147
1.03746
0.946104
0.866109
0.796281
0.735519
0.682814
0.637246
0.597979
0.56426
0.535408
0.510815
0.489938
0.472295
0.457458
0.445051
0.434744
0.426246
0.419305
0.413703
0.409249
0.40578
0.403157
0.401258
0.399983
0.399244
0.398968
0.399096
0.399576
0.400367
0.401433
0.402739
0.404249
0.406095
0.410456
4136.15
-551.702
-325.947
-97.8397
-20.1135
3.54409
11.6365
15.3078
17.6236
19.447
21.0261
22.4308
23.6782
24.7705
25.7066
26.4854
27.1067
27.5722
27.8847
28.0487
28.0699
27.9551
27.7124
27.3506
26.8789
26.3074
25.6464
24.9064
24.0979
23.2314
22.3172
21.3652
20.385
19.3859
18.3763
17.3643
16.3571
15.3615
14.3835
13.4283
12.5006
11.6043
10.7425
9.91792
9.13256
8.38784
7.68467
7.02346
6.40421
5.82652
5.28966
4.7926
4.33407
3.9126
3.52655
3.17416
2.85359
2.56294
2.3003
2.06373
1.85132
1.66123
1.49164
1.34082
1.2071
1.08891
0.984765
0.893283
0.81317
0.743228
0.682356
0.629545
0.583872
0.544503
0.510682
0.481728
0.457033
0.436053
0.418304
0.40336
0.390843
0.380422
0.371807
0.364745
0.359016
0.354431
0.350826
0.34806
0.346013
0.344583
0.343683
0.34324
0.343193
0.343491
0.344093
0.344964
0.346068
0.347374
0.34899
0.352739
4136.15
-551.704
-325.951
-97.8456
-20.1211
3.53496
11.6258
15.2956
17.6099
19.4318
21.0096
22.4129
23.659
24.7501
25.685
26.4626
27.0829
27.5474
27.859
28.022
28.0423
27.9268
27.6834
27.3207
26.8484
26.2763
25.6146
24.874
24.0649
23.1979
22.2831
21.3306
20.35
19.3503
18.3403
17.3278
16.3202
15.3241
14.3457
13.3901
12.4619
11.5652
10.703
9.87804
9.0923
8.34721
7.64367
6.98211
6.36252
5.78451
5.24734
4.74998
4.29116
3.86942
3.4831
3.13047
2.80967
2.5188
2.25594
2.01917
1.80659
1.61632
1.44657
1.29559
1.16172
1.04339
0.939122
0.847517
0.767287
0.697233
0.636253
0.583337
0.537563
0.498095
0.464176
0.435125
0.410333
0.389255
0.371408
0.356364
0.343744
0.333217
0.324494
0.317319
0.311474
0.306769
0.303038
0.300141
0.297959
0.296387
0.295339
0.294743
0.294536
0.294668
0.295098
0.295789
0.296709
0.297828
0.299233
0.302448
4136.15
-551.707
-325.955
-97.8509
-20.1278
3.52679
11.6163
15.2847
17.5977
19.4183
20.9948
22.397
23.642
24.7321
25.666
26.4427
27.0621
27.5257
27.8365
27.9988
28.0185
27.9023
27.6582
27.2951
26.8222
26.2496
25.5875
24.8464
24.0369
23.1694
22.2542
21.3013
20.3203
19.3202
18.3098
17.2969
16.2889
15.2925
14.3137
13.3577
12.4292
11.5321
10.6696
9.84424
9.05815
8.31272
7.60885
6.94696
6.32705
5.74873
5.21125
4.7136
4.25451
3.83249
3.44592
3.09304
2.772
2.48092
2.21785
1.98088
1.76811
1.57767
1.40775
1.25661
1.1226
1.00413
0.899732
0.808003
0.727655
0.65749
0.596404
0.543385
0.497512
0.457947
0.423934
0.39479
0.369905
0.348735
0.330795
0.315657
0.302941
0.292317
0.283493
0.276215
0.270263
0.265446
0.261601
0.258585
0.256278
0.254577
0.253395
0.252659
0.252306
0.252287
0.252559
0.253087
0.253839
0.254787
0.256
0.258751
4136.15
-551.709
-325.959
-97.8556
-20.1339
3.51942
11.6076
15.2748
17.5867
19.4062
20.9817
22.3829
23.6269
24.7161
25.6492
26.4251
27.0438
27.5067
27.8169
27.9787
27.9978
27.8811
27.6366
27.273
26.7997
26.2267
25.5643
24.8229
24.0131
23.1453
22.2298
21.2766
20.2953
19.2949
18.2842
17.271
16.2627
15.266
14.2869
13.3306
12.4018
11.5043
10.6415
9.81586
9.02945
8.28369
7.5795
6.91731
6.29709
5.71846
5.1807
4.68276
4.22339
3.80111
3.41428
3.06116
2.73989
2.44858
2.1853
1.94813
1.73517
1.54455
1.37446
1.22317
1.08901
0.9704
0.865865
0.774012
0.693547
0.62327
0.562077
0.508957
0.462987
0.423328
0.389222
0.359989
0.335015
0.313757
0.29573
0.280503
0.267698
0.256983
0.248065
0.240692
0.234642
0.229724
0.225773
0.222648
0.220228
0.21841
0.217105
0.216241
0.215757
0.2156
0.215729
0.216109
0.216709
0.2175
0.21854
0.220887
4136.15
-551.711
-325.962
-97.86
-20.1395
3.51268
11.5998
15.2659
17.5767
19.3952
20.9698
22.3701
23.6133
24.7017
25.6341
26.4094
27.0275
27.49
27.7997
27.961
27.9797
27.8627
27.6179
27.254
26.7805
26.2073
25.5446
24.803
23.993
23.125
22.2093
21.2559
20.2744
19.2739
18.2629
17.2495
16.241
15.2441
14.2647
13.3081
12.379
11.4813
10.6182
9.79226
9.00555
8.2595
7.55501
6.89252
6.27201
5.69309
5.15504
4.65682
4.19718
3.77463
3.38755
3.03418
2.71267
2.42113
2.15764
1.92027
1.70712
1.51631
1.34605
1.1946
1.06028
0.941534
0.836866
0.744886
0.664302
0.593912
0.532613
0.479392
0.433325
0.393573
0.359378
0.330057
0.304999
0.283657
0.265545
0.250235
0.237347
0.226547
0.217543
0.210082
0.203941
0.19893
0.194884
0.191659
0.189136
0.187211
0.185796
0.184817
0.184212
0.183931
0.183931
0.184177
0.184638
0.185289
0.186173
0.188169
4136.15
-551.712
-325.965
-97.8641
-20.1446
3.50642
11.5925
15.2576
17.5675
19.3851
20.9589
22.3584
23.601
24.6887
25.6206
26.3954
27.013
27.4751
27.7844
27.9455
27.964
27.8468
27.6018
27.2377
26.7641
26.1907
25.528
24.7863
23.9762
23.1081
22.1923
21.2388
20.2572
19.2565
18.2455
17.2319
16.2232
15.2261
14.2465
13.2897
12.3604
11.4624
10.5991
9.77288
8.98591
8.23958
7.53481
6.87203
6.25124
5.67204
5.1337
4.63521
4.17529
3.75248
3.36514
3.01152
2.68977
2.398
2.13429
1.89671
1.68336
1.49237
1.32194
1.17031
1.03584
0.916947
0.812141
0.720033
0.639327
0.568824
0.507418
0.454095
0.407932
0.368088
0.333804
0.304398
0.279257
0.257834
0.239644
0.224254
0.211287
0.200408
0.191324
0.183781
0.177558
0.172462
0.168327
0.165013
0.162396
0.160374
0.158859
0.157776
0.157063
0.156669
0.156553
0.156678
0.157015
0.157538
0.158283
0.159975
4136.15
-551.714
-325.967
-97.8679
-20.1495
3.50053
11.5856
15.2498
17.5588
19.3757
20.9487
22.3476
23.5896
24.6768
25.6082
26.3826
26.9999
27.4617
27.7708
27.9317
27.95
27.8327
27.5877
27.2236
26.75
26.1766
25.5139
24.7722
23.9621
23.094
22.1783
21.2248
20.2431
19.2424
18.2313
17.2176
16.2088
15.2116
14.2319
13.2749
12.3454
11.4473
10.5836
9.75723
8.97001
8.22342
7.51839
6.85534
6.23426
5.65478
5.11617
4.6174
4.15721
3.73413
3.34653
2.99266
2.67067
2.37867
2.11473
1.87694
1.66338
1.4722
1.30158
1.14979
1.01516
0.89611
0.791163
0.698922
0.618093
0.547473
0.485958
0.432533
0.386272
0.346337
0.311966
0.282476
0.257255
0.235753
0.217486
0.202022
0.18898
0.178027
0.168868
0.16125
0.15495
0.149776
0.145562
0.142165
0.139464
0.137354
0.135748
0.134571
0.133761
0.133267
0.133045
0.133062
0.133287
0.133697
0.134316
0.135745
4136.15
-551.716
-325.97
-97.8716
-20.1542
3.49485
11.579
15.2424
17.5506
19.3667
20.9391
22.3374
23.5788
24.6656
25.5966
26.3707
26.9878
27.4494
27.7584
27.9193
27.9376
27.8203
27.5753
27.2113
26.7378
26.1646
25.5019
24.7604
23.9504
23.0824
22.1667
21.2133
20.2317
19.2311
18.22
17.2063
16.1975
15.2002
14.2203
13.2633
12.3336
11.4353
10.5715
9.74486
8.95741
8.21058
7.50529
6.84198
6.22064
5.64088
5.10199
4.60295
4.14248
3.71913
3.33127
2.97714
2.6549
2.36265
2.09849
1.86047
1.64671
1.45533
1.28452
1.13255
0.997753
0.878551
0.773457
0.681081
0.600124
0.529385
0.467759
0.414229
0.367871
0.327843
0.293386
0.263813
0.238512
0.216935
0.198594
0.183058
0.169945
0.158921
0.149694
0.142006
0.135635
0.130389
0.126102
0.12263
0.119852
0.117663
0.115976
0.114714
0.113817
0.113232
0.112917
0.112836
0.112962
0.113269
0.113776
0.114979
4136.15
-551.717
-325.973
-97.8753
-20.1589
3.48928
11.5726
15.2351
17.5426
19.358
20.9298
22.3276
23.5685
24.655
25.5857
26.3595
26.9765
27.438
27.747
27.9079
27.9263
27.8091
27.5643
27.2005
26.7271
26.1541
25.4917
24.7504
23.9406
23.0729
22.1574
21.2041
20.2227
19.2222
18.2111
17.1975
16.1887
15.1914
14.2115
13.2544
12.3246
11.4261
10.5622
9.73535
8.9477
8.20065
7.49512
6.83155
6.20995
5.62992
5.09076
4.59144
4.1307
3.70707
3.31894
2.96454
2.64205
2.34956
2.08515
1.84691
1.63293
1.44134
1.27034
1.11818
0.983213
0.86385
0.758605
0.666088
0.584999
0.514139
0.452398
0.398762
0.352305
0.312184
0.277639
0.247984
0.222604
0.200952
0.18254
0.166934
0.153754
0.142664
0.13337
0.125617
0.119181
0.113869
0.109515
0.105976
0.103128
0.100868
0.0991063
0.0977691
0.0967935
0.0961276
0.0957286
0.0955617
0.0955981
0.095814
0.0962224
0.0972295
4136.15
-551.719
-325.975
-97.879
-20.1635
3.48369
11.5661
15.2278
17.5346
19.3494
20.9206
22.3179
23.5584
24.6445
25.575
26.3487
26.9656
27.4271
27.7362
27.8972
27.9158
27.7989
27.5543
27.1908
26.7177
26.1451
25.483
24.742
23.9325
23.0651
22.1499
21.1969
20.2156
19.2153
18.2044
17.1909
16.1822
15.1849
14.205
13.2479
12.318
11.4194
10.5553
9.72837
8.94053
8.19327
7.48751
6.8237
6.20184
5.62155
5.08211
4.58251
4.12149
3.69759
3.30918
2.95451
2.63175
2.33901
2.07436
1.83588
1.62167
1.42987
1.25866
1.10632
0.971168
0.851637
0.746236
0.653572
0.572348
0.501361
0.439503
0.385758
0.339199
0.298983
0.26435
0.234612
0.209154
0.187429
0.168946
0.153273
0.140027
0.128874
0.119519
0.111704
0.105207
0.0998348
0.0954194
0.0918177
0.0889069
0.0865821
0.0847545
0.0833493
0.0823036
0.0815654
0.0810918
0.0808478
0.0808049
0.0809398
0.0812605
0.0820998
4136.15
-551.72
-325.978
-97.8827
-20.1683
3.47799
11.5595
15.2205
17.5265
19.3406
20.9112
22.3081
23.5483
24.6341
25.5644
26.3381
26.955
27.4165
27.7258
27.887
27.9058
27.7892
27.545
27.1819
26.7093
26.137
25.4753
24.7348
23.9257
23.0586
22.1438
21.1911
20.2102
19.2101
18.1995
17.1862
16.1776
15.1804
14.2006
13.2434
12.3136
11.4149
10.5507
9.72359
8.93558
8.18813
7.48215
6.8181
6.19599
5.61544
5.07572
4.57585
4.11454
3.69036
3.30167
2.94672
2.62369
2.33068
2.06578
1.82705
1.61261
1.42059
1.24917
1.09663
0.961292
0.841585
0.736021
0.643205
0.56184
0.490722
0.428742
0.374885
0.328222
0.28791
0.253187
0.223365
0.19783
0.17603
0.157478
0.141739
0.128431
0.117217
0.107803
0.0999306
0.0933769
0.0879478
0.083476
0.0798175
0.0768493
0.0744661
0.072579
0.0711128
0.0700045
0.0692018
0.0686618
0.0683494
0.0682363
0.0682993
0.0685426
0.069238
4136.15
-551.722
-325.981
-97.8866
-20.1732
3.47207
11.5527
15.2128
17.5181
19.3316
20.9016
22.298
23.5379
24.6235
25.5537
26.3273
26.9442
27.406
27.7154
27.8769
27.8961
27.7799
27.5362
27.1735
26.7014
26.1297
25.4685
24.7285
23.9199
23.0533
22.139
21.1867
20.2062
19.2064
18.196
17.183
16.1746
15.1776
14.1979
13.2408
12.3109
11.4122
10.548
9.72073
8.93258
8.18494
7.47877
6.81449
6.19213
5.61131
5.07133
4.57117
4.10958
3.6851
3.29612
2.9409
2.61759
2.3243
2.05913
1.82016
1.60547
1.41321
1.24158
1.08883
0.953297
0.833408
0.727674
0.6347
0.553188
0.481934
0.419829
0.365855
0.319085
0.278674
0.243859
0.213952
0.188338
0.166465
0.147844
0.13204
0.11867
0.107398
0.0979269
0.09
0.0833929
0.0779112
0.0733873
0.0696767
0.0666561
0.0642201
0.0622794
0.0607585
0.0595942
0.0587341
0.0581351
0.0577622
0.0575869
0.0575865
0.0577617
0.0583339
4136.14
-551.724
-325.984
-97.8907
-20.1784
3.46584
11.5455
15.2048
17.5092
19.3221
20.8916
22.2876
23.5271
24.6125
25.5426
26.3162
26.9332
27.3952
27.7049
27.8668
27.8864
27.7707
27.5275
27.1655
26.6939
26.1228
25.4623
24.7228
23.9149
23.0489
22.1351
21.1833
20.2032
19.2039
18.1939
17.1812
16.1731
15.1762
14.1967
13.2397
12.3099
11.4112
10.5469
9.71955
8.93127
8.18348
7.47711
6.81261
6.19001
5.60894
5.06868
4.56823
4.10635
3.68158
3.29231
2.93679
2.61319
2.31962
2.05418
1.81494
1.6
1.4075
1.23564
1.08267
0.946935
0.826855
0.720943
0.627804
0.546139
0.474743
0.412508
0.358414
0.311533
0.271019
0.23611
0.206117
0.180423
0.158476
0.139786
0.123918
0.110488
0.0991578
0.0896325
0.0816534
0.0749957
0.0694647
0.0648922
0.0611337
0.0580653
0.0555813
0.0535921
0.0520221
0.0508078
0.0498967
0.0492454
0.0488189
0.0485887
0.0485325
0.0486479
0.0491148
4136.14
-551.726
-325.987
-97.8951
-20.184
3.45922
11.5379
15.1962
17.4999
19.312
20.881
22.2765
23.5157
24.6009
25.5309
26.3045
26.9218
27.384
27.6941
27.8564
27.8765
27.7614
27.5188
27.1574
26.6866
26.1162
25.4564
24.7177
23.9104
23.0451
22.1319
21.1807
20.2012
19.2024
18.1928
17.1805
16.1727
15.1761
14.1967
13.2399
12.3102
11.4115
10.5472
9.71984
8.93145
8.18351
7.47696
6.81226
6.18942
5.60809
5.06756
4.56682
4.10465
3.67958
3.29
2.93418
2.61028
2.31642
2.0507
1.81118
1.59598
1.40323
1.23113
1.07793
0.941986
0.821708
0.71561
0.622299
0.540474
0.468931
0.406559
0.35234
0.305344
0.264726
0.22972
0.199638
0.173862
0.15184
0.133081
0.117148
0.103658
0.092272
0.0826937
0.0746642
0.0679582
0.0623807
0.0577629
0.05396
0.0508476
0.0483198
0.0462868
0.0446726
0.0434137
0.0424571
0.0417595
0.0412856
0.0410071
0.0409017
0.0409649
0.0413422
4136.14
-551.728
-325.99
-97.8998
-20.1899
3.45213
11.5297
15.1871
17.4899
19.3013
20.8696
22.2647
23.5035
24.5885
25.5185
26.2922
26.9096
27.3721
27.6826
27.8454
27.8662
27.7518
27.5099
27.1493
26.6792
26.1096
25.4507
24.7127
23.9062
23.0417
22.1292
21.1787
20.1998
19.2016
18.1926
17.1807
16.1733
15.177
14.1979
13.2413
12.3117
11.4131
10.5488
9.7214
8.93293
8.18486
7.47814
6.81324
6.19017
5.60859
5.06778
4.56676
4.10428
3.67891
3.28902
2.93289
2.60868
2.31452
2.0485
1.8087
1.59322
1.40021
1.22786
1.07443
0.938262
0.817776
0.711485
0.617993
0.536001
0.464304
0.401791
0.347442
0.300327
0.259599
0.224494
0.194321
0.168461
0.146363
0.127533
0.111536
0.0979857
0.0865441
0.0769138
0.0688354
0.0620832
0.0564613
0.0518009
0.0479565
0.0448035
0.0422357
0.0401629
0.0385089
0.0372099
0.0362128
0.0354741
0.0349584
0.0346374
0.0344891
0.0345067
0.0348076
4136.14
-551.73
-325.994
-97.9048
-20.1963
3.44448
11.5209
15.1772
17.4791
19.2897
20.8574
22.2519
23.4904
24.5752
25.5051
26.2789
26.8966
27.3594
27.6704
27.8338
27.8553
27.7415
27.5005
27.1407
26.6716
26.1029
25.4448
24.7078
23.9022
23.0385
22.1268
21.1772
20.199
19.2014
18.193
17.1816
16.1746
15.1788
14.2
13.2436
12.3142
11.4157
10.5515
9.72407
8.93554
8.18736
7.48049
6.8154
6.19211
5.61027
5.06919
4.56788
4.1051
3.67941
3.2892
2.93275
2.60823
2.31376
2.04743
1.80733
1.59157
1.39828
1.22567
1.072
0.935599
0.814897
0.708403
0.614723
0.532557
0.460699
0.398038
0.343553
0.296314
0.255473
0.220264
0.189997
0.164052
0.141875
0.122974
0.106911
0.0933012
0.0818043
0.0721227
0.0639965
0.0571993
0.051535
0.0468341
0.0429507
0.0397601
0.0371554
0.0350462
0.0333562
0.0320212
0.030988
0.0302129
0.0296604
0.0293021
0.029116
0.0290939
0.0293301
4136.14
-551.733
-325.998
-97.9103
-20.2032
3.43622
11.5114
15.1665
17.4674
19.2772
20.8441
22.2381
23.4763
24.5609
25.4907
26.2646
26.8825
27.3458
27.6573
27.8213
27.8435
27.7306
27.4904
27.1316
26.6635
26.0958
25.4387
24.7027
23.8981
23.0354
22.1246
21.1758
20.1985
19.2016
18.1938
17.1831
16.1767
15.1813
14.2029
13.2468
12.3176
11.4193
10.5551
9.72771
8.93914
8.19087
7.48387
6.81859
6.19508
5.613
5.07165
4.57004
4.10695
3.68094
3.29041
2.93363
2.60878
2.31399
2.04735
1.80694
1.59088
1.39731
1.22443
1.0705
0.933858
0.812928
0.706223
0.612346
0.529998
0.457972
0.395157
0.340531
0.293163
0.252204
0.216888
0.186523
0.16049
0.138232
0.119258
0.103129
0.0894583
0.0779059
0.0681733
0.0599999
0.0531588
0.0474535
0.0427138
0.0387937
0.0355677
0.0329288
0.0307863
0.0290636
0.0276962
0.0266307
0.0258232
0.0252381
0.0248471
0.0246281
0.0245716
0.0247529
4136.14
-551.735
-326.002
-97.9162
-20.2107
3.42727
11.5011
15.155
17.4548
19.2636
20.8298
22.2232
23.4609
24.5453
25.475
26.2491
26.8673
27.331
27.643
27.8078
27.8308
27.7188
27.4796
27.1218
26.6547
26.0882
25.4322
24.6973
23.8938
23.0321
22.1224
21.1746
20.1981
19.2021
18.1951
17.185
16.1792
15.1843
14.2064
13.2506
12.3217
11.4236
10.5595
9.73219
8.94361
8.19527
7.48814
6.8227
6.19898
5.61666
5.07503
4.57313
4.10973
3.6834
3.29253
2.93541
2.61023
2.3151
2.04813
1.8074
1.59104
1.39717
1.22401
1.06981
0.932916
0.81175
0.704823
0.610741
0.528203
0.456002
0.393026
0.338252
0.290749
0.249668
0.214241
0.183775
0.15765
0.13531
0.116261
0.100064
0.0863313
0.0747228
0.064939
0.0567188
0.0498346
0.0440892
0.0393122
0.0353569
0.0320976
0.0294269
0.0272536
0.0255009
0.0241042
0.0230097
0.0221734
0.0215596
0.0211398
0.0208921
0.0208057
0.0209407
4136.14
-551.738
-326.007
-97.9226
-20.2188
3.41755
11.4899
15.1425
17.4411
19.2489
20.8143
22.207
23.4442
24.5283
25.458
26.2322
26.8507
27.3148
27.6276
27.7931
27.8169
27.7059
27.4678
27.1112
26.6453
26.0799
25.4252
24.6915
23.8892
23.0287
22.1201
21.1733
20.1978
19.2028
18.1966
17.1873
16.1821
15.1878
14.2104
13.255
12.3264
11.4286
10.5647
9.7374
8.94884
8.20046
7.49322
6.82762
6.20371
5.62114
5.07924
4.57705
4.11333
3.68666
3.29546
2.93799
2.61246
2.31699
2.04968
1.80862
1.59194
1.39776
1.22431
1.06983
0.932671
0.811258
0.704101
0.609804
0.527068
0.454684
0.391539
0.336612
0.288968
0.247759
0.212216
0.181646
0.155426
0.133
0.113874
0.0976074
0.0838123
0.072147
0.0623117
0.0540447
0.0471177
0.041333
0.0365197
0.0325306
0.0292395
0.0265388
0.0243369
0.0225567
0.0211332
0.0200127
0.0191507
0.0185114
0.0180664
0.0177936
0.0176815
0.0177773
4136.14
-551.741
-326.012
-97.9297
-20.2277
3.40693
11.4778
15.1289
17.4263
19.2329
20.7974
22.1894
23.4262
24.5099
25.4395
26.2138
26.8326
27.2973
27.6107
27.777
27.8018
27.6919
27.4549
27.0995
26.6349
26.0708
25.4175
24.6851
23.8841
23.0248
22.1175
21.1718
20.1975
19.2034
18.1982
17.1897
16.1853
15.1917
14.2148
13.2599
12.3317
11.4341
10.5704
9.74326
8.95474
8.20633
7.49901
6.83327
6.20916
5.62636
5.08419
4.5817
4.11766
3.69066
3.2991
2.94129
2.61539
2.31957
2.05191
1.81051
1.59349
1.399
1.22523
1.07047
0.933036
0.811365
0.703967
0.609447
0.526503
0.453928
0.390608
0.33552
0.28773
0.246389
0.210725
0.180046
0.153727
0.131213
0.112007
0.0956691
0.0818097
0.0700865
0.0601991
0.0518848
0.0449151
0.0390916
0.0342426
0.0302207
0.0268992
0.02417
0.0219414
0.0201356
0.0186877
0.0175434
0.0166585
0.0159966
0.0155294
0.0152347
0.0151004
0.0151634
4136.14
-551.745
-326.018
-97.9379
-20.2379
3.39511
11.4644
15.1142
17.4102
19.2157
20.7792
22.1704
23.4066
24.49
25.4195
26.1939
26.813
27.2782
27.5923
27.7595
27.7853
27.6765
27.4408
27.0867
26.6235
26.0609
25.4089
24.678
23.8784
23.0205
22.1145
21.1701
20.197
19.204
18.1998
17.1923
16.1887
15.1958
14.2195
13.2652
12.3374
11.4401
10.5767
9.74968
8.96123
8.21282
7.50543
6.83956
6.21527
5.63224
5.08981
4.58702
4.12265
3.69531
3.3034
2.94522
2.61896
2.32277
2.05474
1.81299
1.59563
1.4008
1.22672
1.07165
0.933936
0.811997
0.704349
0.609595
0.526435
0.45366
0.390157
0.334902
0.28696
0.245479
0.20969
0.178897
0.152477
0.129871
0.110583
0.0941711
0.0802455
0.0684631
0.0585226
0.0501607
0.0431481
0.0372858
0.0324017
0.0283477
0.0249967
0.0222403
0.0199862
0.0181567
0.0166862
0.0155204
0.0146147
0.0139328
0.013446
0.0131323
0.0129789
0.0130143
4136.14
-551.751
-326.026
-97.9485
-20.2504
3.38123
11.4495
15.098
17.3928
19.1971
20.7595
22.1498
23.3854
24.4684
25.3978
26.1722
26.7917
27.2574
27.5723
27.7404
27.7673
27.6598
27.4254
27.0727
26.611
26.0499
25.3995
24.6701
23.872
23.0156
22.111
21.1681
20.1962
19.2045
18.2014
17.1949
16.1922
15.2001
14.2245
13.2708
12.3435
11.4466
10.5834
9.7566
8.96825
8.21986
7.51242
6.84643
6.22197
5.63872
5.09603
4.59294
4.12825
3.70056
3.30828
2.94973
2.62309
2.32652
2.05812
1.816
1.59828
1.40312
1.22871
1.07332
0.93531
0.813092
0.705182
0.610185
0.526799
0.453817
0.390123
0.334693
0.286592
0.244967
0.209047
0.178137
0.15161
0.128909
0.109536
0.0930478
0.0790542
0.0672111
0.0572164
0.048806
0.0417501
0.0358488
0.0309297
0.0268441
0.0234644
0.0206817
0.0184035
0.0165515
0.01506
0.0138745
0.01295
0.0122502
0.0117462
0.0114159
0.011246
0.0112585
4136.13
-551.764
-326.042
-97.9656
-20.2687
3.36273
11.4313
15.0797
17.3737
19.1769
20.7383
22.1277
23.3626
24.4452
25.3744
26.1489
26.7687
27.235
27.5506
27.7197
27.7478
27.6415
27.4086
27.0574
26.5972
26.0378
25.389
24.6613
23.8649
23.0101
22.1071
21.1656
20.1951
19.2047
18.2028
17.1974
16.1957
15.2045
14.2297
13.2766
12.3498
11.4534
10.5905
9.76395
8.97573
8.2274
7.51993
6.85384
6.22922
5.64575
5.1028
4.59941
4.13439
3.70634
3.3137
2.95476
2.62774
2.33078
2.062
1.8195
1.60141
1.40589
1.23114
1.07543
0.937105
0.814596
0.706414
0.611164
0.527544
0.454345
0.390452
0.33484
0.286573
0.244798
0.208742
0.177709
0.151073
0.128273
0.108811
0.0922445
0.0781807
0.0662751
0.0562249
0.0477651
0.0406652
0.0347247
0.0297706
0.0256536
0.0222456
0.0194374
0.0171359
0.0152626
0.0137515
0.0125477
0.0116061
0.0108902
0.010371
0.0100263
0.00984232
0.00983565
4136.11
-551.806
-326.083
-98.0019
-20.302
3.33282
11.4056
15.0569
17.3518
19.1548
20.7155
22.1041
23.3383
24.4205
25.3494
26.124
26.744
27.2109
27.5273
27.6975
27.7267
27.6218
27.3903
27.0408
26.5823
26.0245
25.3776
24.6516
23.8569
23.0039
22.1025
21.1626
20.1936
19.2046
18.204
17.1998
16.1993
15.209
14.235
13.2826
12.3564
11.4605
10.598
9.77168
8.98364
8.23537
7.52789
6.86173
6.23695
5.65328
5.11007
4.60638
4.14103
3.71263
3.31961
2.96028
2.63286
2.3355
2.06632
1.82344
1.60497
1.40907
1.23397
1.07792
0.939278
0.816467
0.708003
0.612489
0.528625
0.4552
0.391101
0.3353
0.28686
0.244928
0.208731
0.177571
0.15082
0.127918
0.108364
0.0917157
0.0775794
0.0656095
0.0555021
0.0469918
0.0398471
0.0338669
0.0288776
0.0247292
0.0212932
0.01846
0.0161359
0.0142422
0.0127125
0.0114918
0.0105346
0.00980415
0.00927142
0.00891416
0.00871818
0.00869574
4136.02
-551.981
-326.224
-98.0967
-20.373
3.27584
11.3616
15.0228
17.3234
19.1287
20.6899
22.0784
23.3123
24.3941
25.3229
26.0976
26.718
27.1854
27.5027
27.6738
27.7043
27.6008
27.3709
27.023
26.5662
26.0103
25.3651
24.641
23.8482
22.9969
22.0973
21.1591
20.1917
19.2042
18.205
17.2021
16.2027
15.2134
14.2404
13.2888
12.3633
11.4678
10.6057
9.77975
8.9919
8.24374
7.53628
6.87005
6.24514
5.66127
5.11781
4.61382
4.14814
3.71938
3.32598
2.96625
2.63842
2.34065
2.07107
1.82777
1.60891
1.41264
1.23716
1.08077
0.941793
0.818669
0.709911
0.614124
0.530006
0.456347
0.392032
0.336034
0.287415
0.245321
0.208977
0.177683
0.150814
0.127805
0.108157
0.091424
0.0772127
0.0651764
0.0550103
0.0464482
0.0392577
0.0332372
0.0282122
0.0240323
0.0205685
0.0177105
0.0153645
0.0134511
0.0119038
0.0106671
0.00969546
0.00895189
0.00840717
0.00803897
0.00783278
0.00779744
4135.57
-552.747
-326.768
-98.3839
-20.5374
3.1623
11.2789
14.9622
17.2768
19.09
20.6553
22.0459
23.2808
24.3633
25.2925
26.0677
26.6887
27.157
27.4753
27.6476
27.6795
27.5776
27.3493
27.0032
26.5483
25.9943
25.3511
24.629
23.8381
22.9888
22.091
21.1546
20.189
19.2031
18.2055
17.2039
16.2058
15.2177
14.2456
13.2948
12.3701
11.4752
10.6136
9.788
9.00041
8.25239
7.54498
6.87871
6.25369
5.66963
5.12593
4.62166
4.15565
3.72653
3.33274
2.97261
2.64437
2.34618
2.07618
1.83247
1.61321
1.41654
1.24069
1.08393
0.944616
0.821169
0.712107
0.616037
0.531656
0.457754
0.393216
0.337014
0.288209
0.245945
0.209448
0.178018
0.151025
0.127906
0.108159
0.0913388
0.0770501
0.0649452
0.0547187
0.0461034
0.0388661
0.0328044
0.0277433
0.0235317
0.0200401
0.0171575
0.0147899
0.0128574
0.0112932
0.0100415
0.00905645
0.00830093
0.00774554
0.00736782
0.00715304
0.00710727
4133.54
-556.039
-328.957
-99.358
-20.9496
2.94548
11.133
14.8501
17.1846
19.0104
20.5839
21.9801
23.219
24.3046
25.2364
26.0139
26.6373
27.108
27.4289
27.604
27.6389
27.54
27.3149
26.972
26.5203
25.9695
25.3294
24.6102
23.8222
22.9756
22.0804
21.1464
20.183
19.1993
18.2035
17.2037
16.2072
15.2205
14.2496
13.3
12.3761
11.4821
10.6211
9.79593
9.00869
8.26092
7.55363
6.88739
6.26232
5.67813
5.13423
4.62971
4.16339
3.73393
3.33977
2.97925
2.6506
2.352
2.08158
1.83746
1.61779
1.42073
1.24449
1.08737
0.947701
0.823923
0.714551
0.61819
0.533539
0.459388
0.39462
0.338208
0.289211
0.246773
0.210119
0.178546
0.151426
0.128193
0.108345
0.0914348
0.0770663
0.064891
0.0546024
0.0459325
0.0386473
0.0325438
0.0274461
0.0232025
0.0196829
0.0167759
0.014387
0.0124359
0.0108554
0.00958945
0.00859195
0.00782554
0.00726063
0.0068747
0.00665275
0.00659875
4126.59
-568.285
-337.142
-102.732
-22.0739
2.55627
10.9314
14.6803
17.0099
18.8259
20.3922
21.7847
23.023
24.1106
25.0466
25.8301
26.4612
26.9411
27.2724
27.4589
27.5057
27.419
27.2062
26.8752
26.4349
25.8949
25.2648
24.5549
23.7753
22.9363
22.048
21.12
20.162
19.1829
18.1913
17.1951
16.2016
15.2176
14.249
13.3013
12.3791
11.4863
10.6265
9.8022
9.01564
8.26838
7.56145
6.89544
6.27046
5.68628
5.14229
4.6376
4.17106
3.74132
3.34684
2.98597
2.65695
2.35796
2.08714
1.84263
1.62256
1.4251
1.24849
1.091
0.950988
0.826879
0.717195
0.620541
0.535617
0.461213
0.396212
0.339586
0.290393
0.247778
0.210963
0.179245
0.151995
0.128645
0.108694
0.0916909
0.0772407
0.0649933
0.0546414
0.0459158
0.038582
0.0324359
0.0273011
0.0230253
0.0194777
0.0165465
0.0141365
0.0121672
0.010571
0.00929154
0.00828241
0.00750605
0.00693272
0.00653976
0.00631199
0.00625181
4140.46
-593.806
-359.506
-112.056
-24.7036
2.03203
10.8554
14.6125
16.8555
18.572
20.0472
21.3654
22.5491
23.6018
24.5211
25.3036
25.9465
26.4482
26.8089
27.0301
27.1149
27.0678
26.8947
26.6026
26.1994
25.6938
25.0954
24.414
23.6598
22.843
21.9738
21.0623
20.1181
19.1506
18.1685
17.1801
16.193
15.2141
14.2496
13.305
12.3852
11.4943
10.6358
9.81249
9.02657
8.27967
7.57291
6.90688
6.28177
5.69733
5.153
4.6479
4.18091
3.75067
3.35567
2.99427
2.66472
2.36519
2.09384
1.8488
1.62823
1.43029
1.25322
1.09529
0.954854
0.830355
0.720306
0.623314
0.538077
0.463385
0.39812
0.341252
0.291842
0.249029
0.212035
0.180158
0.152764
0.129288
0.109223
0.0921202
0.0775818
0.0652569
0.0548369
0.0460519
0.0386663
0.0324753
0.0273015
0.0229919
0.0194153
0.0164591
0.0140277
0.0120401
0.0104283
0.00913562
0.00811538
0.00732977
0.00674886
0.00634987
0.00611761
0.00605376
4863.93
-449.373
-347.569
-114.085
-25.7104
1.96255
11.1222
15.0672
17.5015
19.4196
21.0856
22.5671
23.8791
25.0232
25.9986
26.8052
27.4443
27.919
28.2337
28.3944
28.408
28.2826
28.0271
27.651
27.1644
26.5778
25.9018
25.147
24.3242
23.4439
22.5164
21.5515
20.5587
19.5472
18.5254
17.501
16.4815
15.4734
14.4825
13.5142
12.573
11.6629
10.787
9.94795
9.14787
8.38821
7.66992
6.99351
6.35904
5.76617
5.21426
4.70235
4.22924
3.79351
3.3936
3.02779
2.6943
2.39126
2.11678
1.86896
1.6459
1.44577
1.26675
1.10709
0.965138
0.839296
0.728064
0.630033
0.543883
0.468393
0.402429
0.344952
0.29501
0.251735
0.214341
0.182116
0.154422
0.130687
0.110399
0.0931045
0.0784017
0.0659361
0.055396
0.0465086
0.0390359
0.0327709
0.0275345
0.0231722
0.019551
0.0165574
0.0140947
0.012081
0.0104476
0.00913708
0.00810231
0.00730502
0.00671493
0.0063091
0.00607279
0.00601027
)
;

boundaryField
{
    xmin
    {
        type            calculated;
        value           uniform 0;
    }
    xmax
    {
        type            calculated;
        value           nonuniform List<scalar> 
100
(
4255.94
-393.201
-304.123
-99.8243
-22.4965
1.71736
9.73205
13.184
15.314
16.9924
18.4501
19.7465
20.8945
21.8956
22.7491
23.4549
24.0141
24.4295
24.7049
24.8455
24.8574
24.7477
24.5241
24.1951
23.7693
23.2561
22.6645
22.0041
21.2842
20.5139
19.7023
18.8581
17.9894
17.1044
16.2102
15.314
14.4219
13.5398
12.6728
11.8255
11.002
10.2056
9.43917
8.70504
8.00497
7.34027
6.71177
6.11991
5.56475
5.04599
4.56307
4.11515
3.70118
3.31992
2.96999
2.64992
2.35811
2.09295
1.85278
1.63594
1.44077
1.26565
1.10901
0.969311
0.845102
0.734991
0.637665
0.551888
0.476509
0.410456
0.352739
0.302448
0.258751
0.220887
0.188169
0.159975
0.135745
0.114979
0.0972295
0.0820998
0.069238
0.0583339
0.0491148
0.0413422
0.0348076
0.0293301
0.0247529
0.0209407
0.0177773
0.0151634
0.0130143
0.0112585
0.00983565
0.00869574
0.00779744
0.00710727
0.00659875
0.00625181
0.00605376
0.00601027
)
;
    }
    ymin
    {
        type            calculated;
        value           uniform 0;
    }
    ymax
    {
        type            calculated;
        value           nonuniform List<scalar> 
100
(
4863.93
-449.373
-347.569
-114.085
-25.7104
1.96255
11.1222
15.0672
17.5015
19.4196
21.0856
22.5671
23.8791
25.0232
25.9986
26.8052
27.4443
27.919
28.2337
28.3944
28.408
28.2826
28.0271
27.651
27.1644
26.5778
25.9018
25.147
24.3242
23.4439
22.5164
21.5515
20.5587
19.5472
18.5254
17.501
16.4815
15.4734
14.4825
13.5142
12.573
11.6629
10.787
9.94795
9.14787
8.38821
7.66992
6.99351
6.35904
5.76617
5.21426
4.70235
4.22924
3.79351
3.3936
3.02779
2.6943
2.39126
2.11678
1.86896
1.6459
1.44577
1.26675
1.10709
0.965138
0.839296
0.728064
0.630033
0.543883
0.468393
0.402429
0.344952
0.29501
0.251735
0.214341
0.182116
0.154422
0.130687
0.110399
0.0931045
0.0784017
0.0659361
0.055396
0.0465086
0.0390359
0.0327709
0.0275345
0.0231722
0.019551
0.0165574
0.0140947
0.012081
0.0104476
0.00913708
0.00810231
0.00730502
0.00671493
0.0063091
0.00607279
0.00601027
)
;
    }
    frontAndBack
    {
        type            empty;
    }
}


// ************************************************************************* //
