/*--------------------------------*- C++ -*----------------------------------*\
  =========                 |
  \\      /  F ield         | OpenFOAM: The Open Source CFD Toolbox
   \\    /   O peration     | Website:  https://openfoam.org
    \\  /    A nd           | Version:  10
     \\/     M anipulation  |
\*---------------------------------------------------------------------------*/
FoamFile
{
    format      ascii;
    class       volScalarField;
    location    "3";
    object      ddt0(T);
}
// * * * * * * * * * * * * * * * * * * * * * * * * * * * * * * * * * * * * * //

dimensions      [0 0 -1 1 0 0 0];

internalField   nonuniform List<scalar> 
10000
(
7447.68
3809.83
3736.79
3793.99
3814.15
3819.74
3821.34
3821.86
3822.08
3822.21
3822.31
3822.39
3822.47
3822.54
3822.6
3822.65
3822.7
3822.75
3822.78
3822.81
3822.84
3822.86
3822.87
3822.88
3822.88
3822.89
3822.88
3822.88
3822.87
3822.86
3822.85
3822.83
3822.82
3822.8
3822.78
3822.76
3822.75
3822.73
3822.71
3822.69
3822.68
3822.66
3822.65
3822.63
3822.62
3822.6
3822.59
3822.58
3822.57
3822.56
3822.55
3822.54
3822.54
3822.53
3822.52
3822.52
3822.51
3822.51
3822.51
3822.5
3822.5
3822.5
3822.5
3822.49
3822.49
3822.49
3822.49
3822.49
3822.49
3822.49
3822.49
3822.49
3822.49
3822.49
3822.48
3822.48
3822.48
3822.48
3822.48
3822.48
3822.48
3822.48
3822.48
3822.48
3822.48
3822.48
3822.48
3822.48
3822.48
3822.47
3822.47
3822.47
3822.47
3822.44
3822.35
3821.92
3820.08
3814.44
3833.43
4521.54
4389.13
-708.884
-708.272
-558.676
-505.813
-490.706
-486.349
-484.912
-484.295
-483.924
-483.638
-483.39
-483.166
-482.962
-482.778
-482.613
-482.467
-482.34
-482.232
-482.141
-482.068
-482.011
-481.968
-481.94
-481.925
-481.922
-481.929
-481.946
-481.97
-482.002
-482.04
-482.082
-482.128
-482.177
-482.229
-482.281
-482.334
-482.387
-482.44
-482.491
-482.541
-482.59
-482.636
-482.68
-482.722
-482.761
-482.797
-482.831
-482.862
-482.891
-482.918
-482.942
-482.964
-482.984
-483.001
-483.017
-483.031
-483.044
-483.055
-483.065
-483.073
-483.081
-483.087
-483.093
-483.098
-483.102
-483.105
-483.108
-483.111
-483.113
-483.115
-483.117
-483.118
-483.12
-483.121
-483.122
-483.123
-483.124
-483.125
-483.126
-483.128
-483.129
-483.131
-483.133
-483.135
-483.137
-483.14
-483.143
-483.146
-483.149
-483.154
-483.16
-483.175
-483.221
-483.404
-484.172
-487.315
-498.34
-518.633
-378.355
4302.88
-738.207
-619.437
-414.156
-341.964
-320.819
-314.558
-312.432
-311.483
-310.892
-310.425
-310.016
-309.645
-309.307
-309.001
-308.727
-308.485
-308.274
-308.093
-307.942
-307.82
-307.724
-307.654
-307.607
-307.581
-307.575
-307.587
-307.614
-307.655
-307.707
-307.77
-307.84
-307.917
-307.998
-308.084
-308.171
-308.259
-308.348
-308.435
-308.521
-308.604
-308.684
-308.761
-308.834
-308.903
-308.969
-309.029
-309.086
-309.138
-309.186
-309.23
-309.27
-309.307
-309.34
-309.369
-309.396
-309.419
-309.44
-309.459
-309.475
-309.489
-309.502
-309.512
-309.522
-309.53
-309.537
-309.543
-309.548
-309.552
-309.556
-309.559
-309.561
-309.564
-309.566
-309.568
-309.57
-309.572
-309.573
-309.575
-309.577
-309.58
-309.582
-309.585
-309.588
-309.591
-309.595
-309.599
-309.604
-309.609
-309.615
-309.622
-309.631
-309.649
-309.695
-309.85
-310.43
-312.641
-320.426
-340.513
-331.543
4345.41
-616.176
-444.754
-215.985
-135.055
-110.87
-103.511
-100.913
-99.6938
-98.9012
-98.2615
-97.6959
-97.1818
-96.7134
-96.2893
-95.9093
-95.5733
-95.2806
-95.0303
-94.8212
-94.6515
-94.5191
-94.4218
-94.357
-94.3222
-94.3146
-94.3313
-94.3698
-94.4271
-94.5007
-94.5881
-94.6866
-94.7942
-94.9085
-95.0277
-95.1499
-95.2735
-95.3971
-95.5194
-95.6392
-95.7556
-95.868
-95.9756
-96.0779
-96.1747
-96.2656
-96.3506
-96.4297
-96.5027
-96.57
-96.6315
-96.6877
-96.7385
-96.7845
-96.8258
-96.8628
-96.8957
-96.9249
-96.9508
-96.9735
-96.9934
-97.0107
-97.0258
-97.0388
-97.05
-97.0596
-97.0679
-97.0749
-97.0809
-97.0861
-97.0905
-97.0943
-97.0976
-97.1006
-97.1033
-97.1059
-97.1083
-97.1109
-97.1135
-97.1162
-97.1193
-97.1226
-97.1263
-97.1304
-97.1351
-97.1403
-97.1461
-97.1525
-97.1597
-97.1678
-97.1773
-97.1894
-97.2087
-97.2489
-97.3546
-97.6762
-98.7372
-102.2
-111.258
-115.389
4361.41
-572.119
-382.962
-145.768
-61.3493
-35.7672
-27.7997
-24.8752
-23.4307
-22.4526
-21.6474
-20.9302
-20.2769
-19.6812
-19.1418
-18.6586
-18.2313
-17.8592
-17.5413
-17.2757
-17.0603
-16.8925
-16.7695
-16.6879
-16.6445
-16.6359
-16.6584
-16.7085
-16.7828
-16.8779
-16.9905
-17.1175
-17.2559
-17.403
-17.5563
-17.7134
-17.8722
-18.031
-18.188
-18.3419
-18.4914
-18.6356
-18.7737
-18.9051
-19.0293
-19.146
-19.2551
-19.3565
-19.4502
-19.5365
-19.6154
-19.6874
-19.7527
-19.8116
-19.8646
-19.912
-19.9543
-19.9917
-20.0248
-20.0539
-20.0794
-20.1017
-20.121
-20.1377
-20.1521
-20.1644
-20.175
-20.184
-20.1917
-20.1982
-20.2039
-20.2087
-20.213
-20.2167
-20.2202
-20.2234
-20.2266
-20.2297
-20.233
-20.2365
-20.2403
-20.2445
-20.2491
-20.2543
-20.2602
-20.2667
-20.274
-20.2822
-20.2912
-20.3014
-20.3131
-20.3275
-20.348
-20.384
-20.4602
-20.641
-21.107
-22.3634
-25.2444
-27.3504
4365.98
-559.391
-364.785
-124.723
-38.9409
-12.6992
-4.36738
-1.19681
0.444952
1.59684
2.56083
3.42464
4.21297
4.93209
5.58318
6.16635
6.68185
7.13046
7.51363
7.8334
8.09242
8.29379
8.44105
8.53801
8.58873
8.5974
8.5683
8.50569
8.41379
8.29674
8.15849
8.00284
7.83337
7.65341
7.46604
7.27407
7.08004
6.8862
6.69454
6.50676
6.32432
6.14839
5.97996
5.81976
5.66833
5.52604
5.39308
5.2695
5.15525
5.05014
4.9539
4.86622
4.78669
4.71489
4.65035
4.5926
4.54114
4.4955
4.45518
4.41972
4.38868
4.3616
4.3381
4.31777
4.30027
4.28525
4.2724
4.26143
4.25209
4.24411
4.23729
4.23141
4.22628
4.22173
4.21759
4.21372
4.20997
4.20621
4.20232
4.19818
4.19368
4.18871
4.18318
4.17698
4.17004
4.16226
4.15356
4.14386
4.13305
4.12101
4.10741
4.09137
4.0704
4.03779
3.97779
3.8585
3.62166
3.1641
2.43391
1.86296
4367.32
-555.664
-359.344
-118.253
-31.8815
-5.27889
3.30673
6.68173
8.50314
9.8194
10.9357
11.9407
12.8592
13.6972
14.4557
15.1349
15.7349
16.2567
16.702
17.0731
17.3732
17.606
17.7754
17.886
17.9426
17.9499
17.9131
17.8372
17.7269
17.5873
17.423
17.2383
17.0375
16.8246
16.603
16.3762
16.147
15.9182
15.6921
15.4706
15.2554
15.048
14.8494
14.6606
14.4822
14.3146
14.158
14.0124
13.8779
13.7541
13.6408
13.5375
13.4439
13.3594
13.2834
13.2155
13.1549
13.1012
13.0537
13.012
12.9755
12.9436
12.916
12.8921
12.8715
12.8538
12.8387
12.8258
12.8149
12.8055
12.7975
12.7907
12.7847
12.7794
12.7746
12.7701
12.7658
12.7615
12.7571
12.7523
12.7472
12.7415
12.7352
12.7282
12.7202
12.7113
12.7014
12.6903
12.6779
12.6642
12.6489
12.6315
12.6105
12.5816
12.5344
12.4484
12.2962
12.0704
11.8936
11.925
4367.78
-554.396
-357.445
-115.906
-29.215
-2.36775
6.42231
9.97933
11.9683
13.4407
14.7027
15.8429
16.8859
17.8376
18.6987
19.4693
20.1495
20.7406
21.2445
21.6638
22.0021
22.2635
22.4529
22.5751
22.6357
22.6403
22.5945
22.5041
22.3747
22.2118
22.0208
21.8068
21.5744
21.3283
21.0725
20.8108
20.5467
20.283
20.0225
19.7675
19.5199
19.2812
19.0528
18.8357
18.6306
18.4378
18.2578
18.0906
17.9359
17.7937
17.6636
17.545
17.4374
17.3404
17.2531
17.1751
17.1055
17.0439
16.9894
16.9415
16.8996
16.863
16.8313
16.8038
16.7802
16.76
16.7427
16.7279
16.7154
16.7047
16.6955
16.6877
16.6809
16.6749
16.6695
16.6645
16.6597
16.6549
16.6499
16.6447
16.639
16.6328
16.6258
16.6179
16.6091
16.5993
16.5882
16.5759
16.5622
16.547
16.5301
16.5114
16.49
16.4635
16.4255
16.3609
16.2454
16.0692
15.9631
16.2775
4367.98
-553.824
-356.556
-114.753
-27.8387
-0.793908
8.17651
11.9016
14.0483
15.6689
17.0695
18.3383
19.4997
20.5592
21.5175
22.3744
23.1303
23.7863
24.3447
24.8085
25.1818
25.4691
25.6758
25.8074
25.8702
25.8703
25.8141
25.7081
25.5586
25.3717
25.1535
24.9096
24.6454
24.366
24.0759
23.7794
23.4803
23.1819
22.8873
22.599
22.3192
22.0496
21.7917
21.5466
21.315
21.0975
20.8944
20.7057
20.5313
20.3709
20.2241
20.0904
19.9692
19.8597
19.7614
19.6734
19.5951
19.5256
19.4642
19.4102
19.363
19.3218
19.286
19.2551
19.2286
19.2058
19.1863
19.1697
19.1556
19.1436
19.1334
19.1246
19.1171
19.1104
19.1045
19.099
19.0937
19.0885
19.0831
19.0774
19.0713
19.0645
19.057
19.0485
19.039
19.0283
19.0164
19.003
18.9881
18.9716
18.9534
18.9333
18.911
18.8853
18.8523
18.8009
18.7046
18.5292
18.3666
18.8946
4368.11
-553.462
-355.977
-113.973
-26.871
0.349146
9.48541
13.3677
15.6633
17.424
18.9555
20.3459
21.619
22.78
23.8295
24.7671
25.5934
26.3097
26.9183
27.4228
27.8275
28.1376
28.3587
28.4974
28.5601
28.554
28.4859
28.363
28.1923
27.9807
27.7346
27.4605
27.1642
26.8512
26.5268
26.1955
25.8616
25.5288
25.2003
24.8791
24.5674
24.2672
23.9801
23.7073
23.4496
23.2077
22.9819
22.7721
22.5782
22.3999
22.2368
22.0882
21.9535
21.8319
21.7227
21.625
21.5379
21.4607
21.3926
21.3326
21.2802
21.2345
21.1948
21.1605
21.131
21.1057
21.0841
21.0658
21.0502
21.0369
21.0256
21.016
21.0077
21.0005
20.994
20.988
20.9824
20.9768
20.9711
20.9651
20.9586
20.9514
20.9435
20.9345
20.9244
20.9131
20.9004
20.8862
20.8704
20.8528
20.8334
20.8121
20.7887
20.7627
20.7319
20.6877
20.6029
20.419
20.1725
20.8974
4368.2
-553.175
-355.507
-113.327
-26.057
1.32456
10.6154
14.6451
17.0804
18.9728
20.6274
22.1317
23.5092
24.7649
25.8992
26.9117
27.803
28.5744
29.2287
29.7697
30.202
30.5314
30.7642
30.9072
30.9678
30.9534
30.8719
30.7308
30.5379
30.3006
30.0261
29.7213
29.3925
29.046
28.6872
28.3212
27.9527
27.5856
27.2235
26.8696
26.5264
26.196
25.8801
25.58
25.2967
25.0308
24.7825
24.552
24.339
24.1431
23.964
23.8008
23.6529
23.5194
23.3995
23.2922
23.1966
23.1119
23.0371
22.9714
22.9138
22.8636
22.8201
22.7825
22.7502
22.7225
22.6989
22.6787
22.6617
22.6472
22.6349
22.6245
22.6155
22.6077
22.6008
22.5944
22.5884
22.5826
22.5766
22.5704
22.5636
22.5562
22.5479
22.5386
22.5281
22.5164
22.5031
22.4883
22.4717
22.4534
22.4331
22.4108
22.3863
22.3596
22.3294
22.2891
22.2117
22.0205
21.6928
22.5956
4368.29
-552.921
-355.088
-112.748
-25.3229
2.20855
11.6435
15.8108
18.3767
20.3919
22.1611
23.7713
25.2457
26.589
27.8013
28.8825
29.8329
30.6542
31.3493
31.9223
32.3784
32.7237
32.965
33.1097
33.1657
33.1412
33.0445
32.8839
32.6677
32.4039
32.1003
31.7643
31.4029
31.0226
30.6294
30.2289
29.8259
29.4248
29.0296
28.6434
28.269
27.9088
27.5645
27.2377
26.9291
26.6396
26.3693
26.1184
25.8866
25.6736
25.4787
25.3012
25.1404
24.9952
24.8649
24.7482
24.6444
24.5523
24.471
24.3996
24.337
24.2826
24.2353
24.1945
24.1594
24.1293
24.1037
24.0819
24.0634
24.0478
24.0345
24.0233
24.0137
24.0054
23.998
23.9913
23.9851
23.979
23.9729
23.9665
23.9596
23.952
23.9435
23.934
23.9233
23.9113
23.8977
23.8825
23.8654
23.8465
23.8256
23.8026
23.7774
23.75
23.7198
23.6815
23.6093
23.4141
23.019
24.0717
4368.37
-552.689
-354.705
-112.217
-24.6482
3.02238
12.5911
16.8861
19.5729
21.7018
23.5768
25.2846
26.8479
28.2713
29.5548
30.698
31.7016
32.5672
33.2981
33.8987
34.3745
34.732
34.9787
35.1223
35.1714
35.1348
35.0212
34.8397
34.5991
34.308
33.9747
33.6071
33.2127
32.7986
32.3711
31.9361
31.4989
31.0642
30.636
30.218
29.8129
29.4234
29.0512
28.698
28.3647
28.052
27.7602
27.4893
27.2392
27.0093
26.7991
26.6076
26.4342
26.2776
26.1371
26.0113
25.8994
25.8001
25.7125
25.6355
25.5681
25.5094
25.4585
25.4145
25.3767
25.3444
25.3168
25.2934
25.2736
25.2568
25.2427
25.2307
25.2205
25.2117
25.204
25.1971
25.1906
25.1844
25.1782
25.1717
25.1648
25.1571
25.1486
25.1391
25.1283
25.1162
25.1025
25.087
25.0698
25.0506
25.0293
25.0059
24.9802
24.9524
24.922
24.8849
24.8167
24.6208
24.1761
25.3452
4368.44
-552.476
-354.353
-111.729
-24.0275
3.7713
13.4632
17.8757
20.6737
22.9067
24.8785
26.6752
28.3194
29.8152
31.1627
32.3614
33.4119
34.3163
35.0779
35.7014
36.1928
36.5589
36.8076
36.9474
36.9872
36.9363
36.8043
36.6005
36.3344
36.0151
35.6515
35.2519
34.8244
34.3764
33.9147
33.4455
32.9743
32.5063
32.0457
31.5962
31.161
30.7426
30.3431
29.964
29.6064
29.271
28.9581
28.6678
28.3997
28.1534
27.9282
27.7231
27.5374
27.3698
27.2192
27.0846
26.9648
26.8586
26.7648
26.6824
26.6103
26.5475
26.493
26.446
26.4056
26.371
26.3416
26.3166
26.2955
26.2776
26.2626
26.25
26.2392
26.23
26.222
26.2149
26.2083
26.202
26.1958
26.1893
26.1824
26.1749
26.1665
26.157
26.1464
26.1343
26.1206
26.1053
26.088
26.0688
26.0474
26.0239
25.9981
25.9701
25.9397
25.9036
25.8385
25.6446
25.1686
26.4199
4368.5
-552.282
-354.031
-111.282
-23.4598
4.45614
14.2605
18.7801
21.6792
24.0069
26.0662
27.9431
29.6598
31.2203
32.6245
33.8719
34.9633
35.9007
36.6878
37.3296
37.8323
38.2034
38.451
38.5841
38.6122
38.5451
38.3928
38.1654
37.8728
37.5245
37.1301
36.6982
36.2374
35.7555
35.2597
34.7564
34.2517
33.7508
33.2581
32.7777
32.3128
31.8662
31.4398
31.0354
30.6541
30.2966
29.9632
29.6539
29.3683
29.106
28.8661
28.6479
28.4501
28.2717
28.1116
27.9683
27.8409
27.7278
27.6281
27.5405
27.4638
27.397
27.3391
27.2891
27.2462
27.2095
27.1782
27.1517
27.1293
27.1105
27.0947
27.0813
27.0701
27.0605
27.0523
27.045
27.0383
27.032
27.0259
27.0195
27.0128
27.0054
26.9972
26.988
26.9776
26.9658
26.9524
26.9373
26.9203
26.9013
26.8801
26.8568
26.8312
26.8033
26.7732
26.7379
26.6758
26.4862
25.9956
27.2964
4368.56
-552.106
-353.739
-110.877
-22.9452
5.07683
14.9829
19.5992
22.5893
25.0018
27.1394
29.0877
30.8686
32.486
33.9396
35.229
36.355
37.3198
38.1272
38.7826
39.2926
39.6649
39.9082
40.0318
40.0459
39.9606
39.7866
39.5342
39.214
38.8361
38.4103
37.9459
37.4517
36.9359
36.4061
35.8692
35.3313
34.7979
34.2737
33.763
33.269
32.7946
32.342
31.9129
31.5085
31.1294
30.7759
30.4481
30.1455
29.8677
29.6136
29.3825
29.1731
28.9843
28.8147
28.6632
28.5283
28.4087
28.3032
28.2105
28.1294
28.0587
27.9975
27.9447
27.8993
27.8605
27.8275
27.7995
27.776
27.7562
27.7395
27.7256
27.7139
27.704
27.6956
27.6882
27.6815
27.6753
27.6692
27.6631
27.6566
27.6495
27.6416
27.6328
27.6228
27.6114
27.5984
27.5838
27.5672
27.5487
27.5281
27.5052
27.4801
27.4527
27.4231
27.3889
27.3296
27.1463
26.6557
27.9764
4368.62
-551.949
-353.477
-110.514
-22.4836
5.63347
15.6304
20.3329
23.4039
25.8916
28.0983
30.1092
31.9461
33.6125
35.1083
36.433
37.5875
38.574
39.3967
40.0612
40.5744
40.9443
41.1801
41.2917
41.2894
41.1841
40.9867
40.7082
40.3596
39.9513
39.4937
38.9965
38.4688
37.9193
37.3558
36.7855
36.2148
35.6495
35.0944
34.5539
34.0314
33.5299
33.0518
32.5986
32.1716
31.7714
31.3985
31.0527
30.7337
30.4407
30.173
29.9294
29.7087
29.5098
29.3312
29.1715
29.0294
28.9035
28.7924
28.6948
28.6094
28.5351
28.4707
28.4151
28.3673
28.3266
28.2919
28.2625
28.2378
28.2171
28.1997
28.1852
28.1731
28.1629
28.1543
28.1469
28.1402
28.1341
28.1283
28.1224
28.1162
28.1095
28.1021
28.0937
28.0842
28.0734
28.061
28.047
28.0312
28.0134
27.9935
27.9714
27.9471
27.9205
27.8918
27.8588
27.8025
27.6273
27.1485
28.4637
4368.66
-551.809
-353.244
-110.192
-22.0744
6.12668
16.2038
20.9821
24.124
26.6773
28.944
31.0089
32.8936
34.6015
36.1324
37.4858
38.6627
39.6655
40.4985
41.1676
41.68
42.0442
42.2695
42.3664
42.3456
42.2184
41.9963
41.6905
41.3125
40.8734
40.3836
39.8534
39.2924
38.7093
38.1124
37.5092
36.9062
36.3095
35.724
35.1544
34.6041
34.0762
33.5731
33.0965
32.6475
32.227
31.8352
31.472
31.137
30.8294
30.5484
30.2927
30.0612
29.8525
29.6651
29.4977
29.3487
29.2166
29.1002
28.9978
28.9083
28.8304
28.7629
28.7047
28.6547
28.612
28.5757
28.545
28.5192
28.4975
28.4795
28.4645
28.452
28.4416
28.4328
28.4254
28.4188
28.4129
28.4072
28.4017
28.3959
28.3897
28.3828
28.375
28.3661
28.356
28.3445
28.3313
28.3163
28.2995
28.2806
28.2595
28.2362
28.2108
28.1832
28.1517
28.0985
27.9331
27.4753
28.7636
4368.7
-551.687
-353.041
-109.91
-21.7166
6.55763
16.7045
21.5484
24.7515
27.3611
29.6788
31.7893
33.7138
35.4558
37.0149
38.3907
39.5841
40.5979
41.4364
42.1059
42.6137
42.9687
43.1808
43.2605
43.2192
43.0685
42.8202
42.4861
42.0781
41.6076
41.0854
40.5222
39.9278
39.3115
38.6816
38.0458
37.4112
36.7836
36.1685
35.5704
34.993
34.4394
33.912
33.4126
32.9424
32.5021
32.0921
31.712
31.3615
31.0399
30.746
30.4787
30.2367
30.0186
29.8228
29.6479
29.4922
29.3543
29.2326
29.1257
29.0323
28.9509
28.8804
28.8196
28.7675
28.7229
28.6851
28.6531
28.6263
28.6038
28.5851
28.5696
28.5568
28.5462
28.5373
28.5299
28.5234
28.5177
28.5124
28.5072
28.5019
28.4962
28.4899
28.4828
28.4747
28.4654
28.4547
28.4425
28.4286
28.4129
28.3952
28.3753
28.3534
28.3293
28.3032
28.2734
28.2237
28.0692
27.6395
28.8837
4368.74
-551.581
-352.866
-109.668
-21.4089
6.92811
17.1345
22.0342
25.289
27.9458
30.306
32.4539
34.4105
36.1795
37.7601
39.1521
40.3565
41.3762
42.2157
42.8814
43.381
43.7238
43.9199
43.9802
43.9165
43.7407
43.4651
43.1019
42.6632
42.1608
41.6061
41.01
40.3824
39.7331
39.0706
38.4029
37.7371
37.0795
36.4354
35.8095
35.2057
34.6271
34.0762
33.5548
33.064
32.6046
32.1769
31.7806
31.4152
31.08
30.7737
30.4953
30.2432
30.016
29.8122
29.63
29.4679
29.3244
29.1977
29.0865
28.9892
28.9046
28.8312
28.768
28.7137
28.6674
28.6281
28.5949
28.5671
28.5438
28.5245
28.5086
28.4954
28.4846
28.4757
28.4683
28.462
28.4565
28.4515
28.4468
28.442
28.4369
28.4312
28.4249
28.4177
28.4093
28.3996
28.3885
28.3758
28.3613
28.345
28.3266
28.3062
28.2838
28.2593
28.2315
28.1854
28.0429
27.6461
28.833
4368.77
-551.493
-352.719
-109.464
-21.1492
7.24044
17.4965
22.4426
25.7401
28.4354
30.8297
33.0071
34.9887
36.7777
38.3736
39.776
40.986
42.0067
42.8429
43.501
43.9892
44.3168
44.4944
44.5332
44.4453
44.2431
43.9391
43.546
43.0761
42.5417
41.9544
41.3254
40.665
39.9831
39.2886
38.5895
37.8932
37.2062
36.5338
35.881
35.2516
34.6488
34.0751
33.5323
33.0217
32.5439
32.0992
31.6872
31.3075
30.9592
30.6411
30.3519
30.0901
29.8543
29.6426
29.4536
29.2854
29.1364
29.005
28.8896
28.7887
28.7009
28.6248
28.5592
28.503
28.455
28.4143
28.3799
28.3511
28.3271
28.3072
28.2908
28.2774
28.2664
28.2575
28.2501
28.244
28.2388
28.2342
28.2299
28.2256
28.2211
28.2163
28.2107
28.2044
28.197
28.1885
28.1786
28.1672
28.1541
28.1393
28.1225
28.1038
28.0832
28.0607
28.035
27.9928
27.8628
27.5019
28.622
4368.79
-551.419
-352.597
-109.295
-20.9354
7.49738
17.7939
22.7773
26.1087
28.8343
31.2549
33.4546
35.4541
37.2567
38.8618
40.2691
41.4799
42.4971
43.3259
43.9729
44.4464
44.7562
44.913
44.9284
44.8149
44.585
44.2518
43.8281
43.3267
42.7601
42.1403
41.4786
40.7858
40.0717
39.3457
38.616
37.89
37.1742
36.4744
35.7954
35.1412
34.515
33.9193
33.356
32.8262
32.3307
31.8696
31.4426
31.0491
30.6882
30.3588
30.0593
29.7883
29.5441
29.3251
29.1294
28.9553
28.8012
28.6652
28.5458
28.4414
28.3506
28.2719
28.2041
28.146
28.0964
28.0543
28.0188
27.9891
27.9644
27.9439
27.9271
27.9135
27.9024
27.8934
27.8861
27.8802
27.8753
27.8711
27.8672
27.8635
27.8597
27.8556
27.851
27.8456
27.8393
27.8319
27.8233
27.8133
27.8017
27.7885
27.7735
27.7567
27.738
27.7176
27.6942
27.656
27.5389
27.2153
28.2624
4368.81
-551.361
-352.5
-109.16
-20.7647
7.70207
18.0302
23.0425
26.3997
29.1477
31.5873
33.8022
35.8132
37.6234
39.2321
40.6393
41.8461
42.8557
43.6734
44.306
44.7621
45.0516
45.1856
45.176
45.0354
44.7769
44.4137
43.959
43.4259
42.8271
42.1748
41.4808
40.7559
40.0104
39.2535
38.4938
37.7388
36.9953
36.2688
35.5645
34.8863
34.2375
33.6206
33.0375
32.4893
31.9768
31.4999
31.0586
30.6519
30.2791
29.9387
29.6294
29.3495
29.0974
28.8713
28.6693
28.4897
28.3305
28.1902
28.067
27.9594
27.8657
27.7845
27.7146
27.6546
27.6035
27.5601
27.5236
27.493
27.4676
27.4466
27.4294
27.4155
27.4043
27.3953
27.3881
27.3824
27.3778
27.374
27.3706
27.3675
27.3644
27.3611
27.3573
27.353
27.3478
27.3416
27.3343
27.3258
27.3158
27.3043
27.2911
27.2763
27.2597
27.2414
27.2205
27.1863
27.082
26.796
27.7666
4368.83
-551.316
-352.425
-109.057
-20.6343
7.85795
18.2095
23.2427
26.6181
29.3814
31.833
34.0568
36.0731
37.8853
39.4926
40.8949
42.0935
43.0917
43.8949
44.5102
44.9462
45.2133
45.3227
45.2866
45.118
44.83
44.4362
43.9502
43.3853
42.7544
42.07
41.3441
40.5877
39.8113
39.0244
38.2355
37.4523
36.6817
35.9295
35.2007
34.4994
33.8288
33.1916
32.5895
32.0237
31.4948
31.003
30.5478
30.1286
29.7442
29.3935
29.0748
28.7865
28.5269
28.294
28.086
27.901
27.7372
27.5928
27.466
27.3551
27.2587
27.1752
27.1032
27.0415
26.9889
26.9443
26.9068
26.8754
26.8493
26.8278
26.8103
26.7961
26.7848
26.7758
26.7688
26.7633
26.7589
26.7555
26.7527
26.7502
26.7477
26.7452
26.7424
26.739
26.735
26.73
26.7241
26.7171
26.7087
26.699
26.6877
26.6749
26.6605
26.6445
26.6261
26.5959
26.5041
26.2547
27.1478
4368.84
-551.284
-352.371
-108.983
-20.5413
7.96868
18.336
23.3828
26.7694
29.5412
31.9987
34.2253
36.2416
38.0506
39.6518
41.0449
42.2314
43.2148
44.0005
44.5958
45.0097
45.2525
45.3357
45.272
45.0743
44.7562
44.3316
43.8141
43.2174
42.5546
41.8385
41.0812
40.294
39.4874
38.6711
37.8538
37.0434
36.2467
35.4697
34.7173
33.9937
33.3023
32.6455
32.0252
31.4425
30.898
30.3918
29.9235
29.4923
29.0971
28.7364
28.4088
28.1126
27.8457
27.6064
27.3927
27.2027
27.0344
26.8861
26.7558
26.642
26.543
26.4572
26.3833
26.32
26.266
26.2202
26.1817
26.1495
26.1228
26.1008
26.083
26.0686
26.0571
26.0482
26.0412
26.0359
26.0319
26.0288
26.0265
26.0246
26.0229
26.0211
26.0192
26.0168
26.0139
26.0103
26.0057
26.0002
25.9935
25.9855
25.9762
25.9654
25.9532
25.9395
25.9237
25.8976
25.8177
25.6031
26.4197
4368.85
-551.263
-352.337
-108.936
-20.4824
8.03806
18.4142
23.4679
26.8593
29.6336
32.0911
34.3152
36.3263
38.1276
39.7184
41.0986
42.2696
43.2351
44.0007
44.5738
44.9635
45.1804
45.2363
45.1438
44.9164
44.5679
44.1121
43.5632
42.9349
42.2406
41.4933
40.7052
39.8878
39.0518
38.2071
37.3623
36.5256
35.7037
34.9027
34.1277
33.3828
32.6713
31.9958
31.3581
30.7593
30.2
29.6802
29.1993
28.7567
28.3511
27.9811
27.645
27.3411
27.0675
26.8221
26.603
26.4082
26.2357
26.0837
25.9502
25.8335
25.732
25.6441
25.5684
25.5035
25.4482
25.4013
25.3619
25.3289
25.3016
25.2792
25.261
25.2464
25.2348
25.2259
25.219
25.2139
25.2101
25.2075
25.2056
25.2043
25.2032
25.2023
25.2012
25.1999
25.198
25.1956
25.1925
25.1884
25.1833
25.1772
25.1698
25.1611
25.1511
25.1398
25.1265
25.1042
25.0357
24.8536
25.5961
4368.85
-551.253
-352.32
-108.913
-20.4544
8.06997
18.4486
23.5032
26.8935
29.6648
32.1172
34.334
36.3355
38.1249
39.7016
41.0654
42.218
43.163
43.9061
44.455
44.8189
45.0087
45.0362
44.9144
44.6568
44.2775
43.7906
43.2104
42.5509
41.8256
41.0476
40.2294
39.3827
38.5182
37.6458
36.7745
35.9124
35.0663
34.2423
33.4456
32.6803
31.9497
31.2564
30.6021
29.9879
29.4145
28.8817
28.389
27.9355
27.5201
27.1412
26.7971
26.486
26.2059
25.9548
25.7306
25.5313
25.3548
25.1992
25.0627
24.9433
24.8395
24.7496
24.6721
24.6058
24.5492
24.5012
24.4609
24.4273
24.3994
24.3765
24.358
24.3432
24.3315
24.3225
24.3157
24.3108
24.3073
24.305
24.3036
24.3028
24.3024
24.3022
24.302
24.3016
24.3009
24.2997
24.2978
24.2953
24.2918
24.2874
24.2819
24.2752
24.2674
24.2584
24.2477
24.2292
24.1711
24.0187
24.6907
4368.85
-551.253
-352.319
-108.912
-20.4542
8.06832
18.4438
23.4938
26.878
29.6414
32.084
34.2892
36.2772
38.0512
39.6104
40.955
42.0865
43.0087
43.7275
44.2506
44.5874
44.749
44.7474
44.5957
44.3077
43.8976
43.3797
42.7686
42.0782
41.3225
40.5146
39.6672
38.7919
37.8998
37.0008
36.104
35.2174
34.3481
33.5021
32.6846
31.8998
31.151
30.4407
29.7706
29.1419
28.5551
28.0099
27.506
27.0423
26.6176
26.2303
25.8787
25.5608
25.2746
25.0181
24.789
24.5855
24.4052
24.2464
24.1069
23.985
23.879
23.7872
23.7081
23.6403
23.5825
23.5336
23.4924
23.4581
23.4296
23.4063
23.3875
23.3725
23.3607
23.3517
23.3449
23.3402
23.3369
23.335
23.334
23.3337
23.3339
23.3344
23.335
23.3356
23.3359
23.3358
23.3353
23.3341
23.3322
23.3295
23.3258
23.3212
23.3155
23.3088
23.3005
23.2855
23.2371
23.1115
23.7172
4368.85
-551.26
-352.332
-108.93
-20.4785
8.03697
18.4043
23.445
26.8184
29.5697
31.9986
34.1885
36.1595
37.9149
39.4539
40.7767
41.885
42.7826
43.4755
43.9715
44.2803
44.4129
44.3817
44.1998
43.8813
43.4406
42.8921
42.2504
41.5298
40.7444
39.9074
39.0315
38.1286
37.2099
36.2852
35.3639
34.4539
33.5624
32.6954
31.8581
31.0548
30.2886
29.5622
28.8772
28.2347
27.6351
27.0784
26.5638
26.0905
25.657
25.2618
24.903
24.5787
24.2868
24.0252
23.7916
23.5841
23.4003
23.2383
23.0961
22.9719
22.8638
22.7702
22.6895
22.6204
22.5615
22.5116
22.4696
22.4346
22.4056
22.3819
22.3628
22.3475
22.3356
22.3266
22.3199
22.3152
22.3122
22.3105
22.3099
22.3101
22.3109
22.3121
22.3135
22.3149
22.3162
22.3172
22.3179
22.3181
22.3176
22.3165
22.3146
22.3119
22.3083
22.3038
22.2979
22.2863
22.2465
22.1447
22.6889
4368.84
-551.275
-352.356
-108.965
-20.5242
7.97971
18.3346
23.3618
26.7206
29.456
31.8677
34.0391
35.9903
37.7244
39.241
40.5399
41.6232
42.4947
43.1604
43.6284
43.9084
44.0116
43.9505
43.7385
43.3897
42.9185
42.3398
41.6682
40.9182
40.1038
39.2385
38.3351
37.4057
36.4613
35.5121
34.5672
33.6349
32.7221
31.8352
30.9791
30.1581
29.3756
28.6338
27.9347
27.2792
26.6677
26.0999
25.5753
25.0929
24.6512
24.2485
23.883
23.5527
23.2555
22.9891
22.7513
22.5399
22.3528
22.1879
22.0432
21.9167
21.8067
21.7114
21.6293
21.5589
21.4989
21.4481
21.4054
21.3697
21.3402
21.3161
21.2966
21.2812
21.2691
21.26
21.2534
21.2488
21.246
21.2446
21.2443
21.2449
21.2462
21.248
21.2501
21.2523
21.2545
21.2566
21.2584
21.2598
21.2608
21.2612
21.261
21.2601
21.2584
21.256
21.2524
21.2439
21.2119
21.131
21.6185
4368.84
-551.296
-352.391
-109.015
-20.5883
7.90021
18.239
23.2491
26.5899
29.3063
31.698
33.8482
35.7771
37.4879
38.98
40.2536
41.3104
42.1546
42.7923
43.2317
43.4824
43.556
43.465
43.223
42.8441
42.3431
41.7348
41.034
40.2553
39.4128
38.5202
37.5904
36.6354
35.6664
34.6937
33.7264
32.7727
31.8398
30.9339
30.06
29.2223
28.4242
27.6681
26.9556
26.2878
25.665
25.0869
24.5529
24.0619
23.6125
23.2028
22.8311
22.4952
22.1929
21.922
21.6802
21.4653
21.2751
21.1075
20.9604
20.8318
20.7199
20.623
20.5396
20.468
20.407
20.3553
20.3119
20.2756
20.2456
20.2211
20.2013
20.1856
20.1734
20.1642
20.1576
20.1531
20.1504
20.1492
20.1492
20.1502
20.152
20.1543
20.157
20.16
20.163
20.166
20.1689
20.1715
20.1738
20.1757
20.177
20.1778
20.1779
20.1775
20.176
20.1704
20.1454
20.0823
20.5182
4368.83
-551.323
-352.435
-109.076
-20.6679
7.80199
18.1215
23.1117
26.4318
29.1266
31.4958
33.6227
35.5274
37.2131
38.6793
39.9261
40.9556
41.7718
42.3809
42.7911
43.0125
43.0565
42.9358
42.6641
42.2557
41.7254
41.0882
40.359
39.5525
38.683
37.7641
36.8088
35.8293
34.8369
33.8417
32.8531
31.8792
30.9272
30.0032
29.1125
28.2591
27.4463
26.6766
25.9516
25.2722
24.6388
24.0511
23.5083
23.0092
22.5525
22.1364
21.7587
21.4176
21.1106
20.8355
20.59
20.3719
20.1788
20.0086
19.8592
19.7286
19.6151
19.5167
19.4319
19.3593
19.2973
19.2448
19.2007
19.1638
19.1333
19.1084
19.0883
19.0724
19.06
19.0507
19.0441
19.0396
19.037
19.036
19.0363
19.0376
19.0398
19.0426
19.0458
19.0494
19.0532
19.0571
19.0609
19.0646
19.0681
19.0713
19.074
19.0764
19.0782
19.0796
19.0801
19.0771
19.0582
19.0105
19.3994
4368.82
-551.353
-352.486
-109.147
-20.7602
7.68836
17.9861
22.9539
26.251
28.9222
31.2671
33.369
35.248
36.9073
38.3466
39.5658
40.5672
41.3548
41.9351
42.3162
42.5083
42.5229
42.3729
42.072
41.6347
41.0759
40.4106
39.654
38.8206
37.9251
36.981
36.0014
34.9985
33.9837
32.9672
31.9583
30.9652
29.9952
29.0542
28.1476
27.2793
26.4528
25.6703
24.9336
24.2434
23.6
23.0032
22.4522
21.9457
21.4822
21.0599
20.6768
20.3308
20.0194
19.7404
19.4915
19.2702
19.0745
18.9019
18.7504
18.618
18.5029
18.4031
18.3171
18.2434
18.1806
18.1273
18.0825
18.0451
18.0141
17.9888
17.9684
17.9522
17.9396
17.9302
17.9235
17.9191
17.9166
17.9157
17.9161
17.9177
17.9202
17.9234
17.9272
17.9314
17.9358
17.9404
17.9451
17.9498
17.9543
17.9587
17.9627
17.9665
17.9699
17.9729
17.9752
17.9747
17.9611
17.9262
18.2729
4368.8
-551.387
-352.543
-109.227
-20.8627
7.56244
17.8364
22.78
26.0524
28.6984
31.0176
33.0931
34.9454
36.5775
37.989
39.1802
40.1531
40.9121
41.4634
41.8155
41.9786
41.9643
41.7855
41.4561
40.9907
40.4042
39.7119
38.9287
38.0697
37.1491
36.1809
35.1782
34.1531
33.117
32.0803
31.0523
30.0411
29.054
28.097
27.1754
26.2933
25.4538
24.6594
23.9116
23.2113
22.5587
21.9534
21.3947
20.8812
20.4115
19.9835
19.5953
19.2447
18.9292
18.6466
18.3945
18.1704
17.9721
17.7973
17.6439
17.5098
17.3932
17.2921
17.205
17.1303
17.0666
17.0126
16.9671
16.9292
16.8978
16.8721
16.8513
16.8349
16.8221
16.8126
16.8058
16.8013
16.7988
16.798
16.7986
16.8004
16.8032
16.8067
16.8109
16.8156
16.8206
16.8259
16.8313
16.8368
16.8423
16.8477
16.8529
16.8579
16.8627
16.8672
16.8712
16.8728
16.8638
16.8395
17.1483
4368.79
-551.424
-352.604
-109.313
-20.9731
7.42714
17.6758
22.5938
25.8402
28.4599
30.7523
32.8008
34.6256
36.2299
37.6134
38.7762
39.7207
40.451
40.9736
41.2971
41.4317
41.389
41.1822
40.8252
40.3325
39.7194
39.0009
38.1924
37.3087
36.3644
35.3732
34.3484
33.3023
32.2461
31.1903
30.1442
29.116
28.1128
27.1409
26.2053
25.3101
24.4585
23.653
22.8949
22.1851
21.5239
20.9108
20.3449
19.8249
19.3493
18.9161
18.5232
18.1683
17.8491
17.5631
17.308
17.0813
16.8807
16.7038
16.5486
16.4129
16.2949
16.1926
16.1044
16.0288
15.9643
15.9096
15.8635
15.825
15.7932
15.7671
15.7461
15.7294
15.7164
15.7067
15.6998
15.6952
15.6927
15.692
15.6927
15.6946
15.6976
15.7014
15.7059
15.7109
15.7164
15.7223
15.7283
15.7346
15.7409
15.7472
15.7534
15.7596
15.7656
15.7714
15.7769
15.7804
15.7752
15.7598
16.0345
4368.78
-551.463
-352.668
-109.403
-21.089
7.2851
17.5074
22.3989
25.6185
28.2111
30.4762
32.4971
34.2942
35.8705
37.2258
38.3604
39.2765
39.9786
40.473
40.7684
40.8751
40.8049
40.5709
40.1871
39.6682
39.0294
38.286
37.4533
36.5461
35.5791
34.5662
33.5206
32.4545
31.3794
30.3056
29.2425
28.1983
27.1801
26.1941
25.2454
24.3381
23.4752
22.6593
21.8916
21.1731
20.5038
19.8834
19.3109
18.7849
18.3039
17.8658
17.4685
17.1097
16.787
16.4979
16.24
16.0109
15.8081
15.6294
15.4725
15.3353
15.216
15.1126
15.0234
14.9469
14.8817
14.8263
14.7797
14.7407
14.7084
14.6819
14.6605
14.6436
14.6304
14.6205
14.6135
14.6088
14.6063
14.6055
14.6062
14.6082
14.6113
14.6153
14.6201
14.6255
14.6314
14.6376
14.6442
14.6511
14.6581
14.6651
14.6723
14.6794
14.6865
14.6935
14.7002
14.7053
14.7035
14.6952
14.9395
4368.77
-551.502
-352.734
-109.495
-21.2086
7.13874
17.3341
22.1985
25.3908
27.956
30.1936
32.1868
33.956
35.5044
36.8318
37.9385
38.8267
39.501
39.9679
40.2359
40.3156
40.2187
39.9585
39.549
39.005
38.3417
37.5745
36.7187
35.7892
34.8008
33.7673
32.702
31.6172
30.5243
29.4336
28.3546
27.2954
26.2632
25.2641
24.3032
23.3845
22.5112
21.6855
20.909
20.1824
19.5057
18.8785
18.2998
17.7683
17.2822
16.8397
16.4383
16.0759
15.75
15.4581
15.1976
14.9662
14.7614
14.5809
14.4225
14.284
14.1635
14.059
13.9689
13.8916
13.8256
13.7696
13.7225
13.683
13.6503
13.6235
13.6018
13.5845
13.5711
13.561
13.5538
13.549
13.5464
13.5455
13.5463
13.5483
13.5515
13.5556
13.5605
13.5662
13.5723
13.579
13.586
13.5933
13.6008
13.6086
13.6164
13.6243
13.6323
13.6403
13.6481
13.6546
13.6556
13.653
13.8702
4368.75
-551.543
-352.801
-109.59
-21.33
6.99021
17.1584
21.9955
25.1605
27.6982
29.9083
31.8739
33.6156
35.1364
36.4363
37.5156
38.3767
39.0239
39.464
39.7056
39.7592
39.6367
39.3513
38.9172
38.3492
37.6626
36.8728
35.9951
35.0446
34.0359
32.9831
31.8992
30.7968
29.6872
28.5808
27.4869
26.4138
25.3685
24.3572
23.3849
22.4557
21.5727
20.7381
19.9534
19.2192
18.5356
17.9022
17.3178
16.7812
16.2905
15.8438
15.4388
15.073
14.7441
14.4496
14.1868
13.9533
13.7467
13.5646
13.4047
13.265
13.1433
13.0379
12.9469
12.8689
12.8022
12.7456
12.6979
12.658
12.6249
12.5977
12.5757
12.5581
12.5445
12.5341
12.5267
12.5218
12.5191
12.5181
12.5188
12.5208
12.524
12.5282
12.5332
12.539
12.5454
12.5522
12.5596
12.5673
12.5752
12.5835
12.5919
12.6005
12.6092
12.618
12.6267
12.6344
12.6377
12.6395
12.8326
4368.74
-551.584
-352.869
-109.684
-21.4516
6.84143
16.9825
21.7924
24.9302
27.4408
29.6237
31.5622
33.2768
34.7707
36.0438
37.0964
37.9311
38.5521
38.9664
39.1826
39.2111
39.0641
38.7547
38.2972
37.7064
36.9977
36.1865
35.2882
34.3178
33.2902
32.2191
31.118
29.9991
28.8739
27.7528
26.6451
25.5589
24.5015
23.4789
22.4961
21.5572
20.6652
19.8223
19.03
18.2888
17.5989
16.9597
16.3702
15.8289
15.334
14.8834
14.4749
14.1061
13.7745
13.4775
13.2126
12.9772
12.7689
12.5853
12.4242
12.2833
12.1606
12.0542
11.9625
11.8837
11.8165
11.7593
11.7111
11.6707
11.6372
11.6097
11.5873
11.5695
11.5555
11.545
11.5374
11.5323
11.5294
11.5283
11.5289
11.5308
11.534
11.5382
11.5432
11.549
11.5555
11.5626
11.5701
11.5781
11.5864
11.595
11.6039
11.613
11.6223
11.6317
11.6411
11.6498
11.655
11.6603
11.8318
4368.73
-551.624
-352.936
-109.778
-21.5722
6.69407
16.8084
21.5915
24.7026
27.1865
29.3428
31.2549
32.9431
34.4108
35.6579
36.6848
37.494
38.0899
38.4794
38.6712
38.6759
38.5055
38.1734
37.6936
37.0813
36.3518
35.5204
34.6027
33.6138
32.5683
31.4802
30.3629
29.2287
28.089
26.9542
25.8336
24.7355
23.6668
22.6337
21.6413
20.6933
19.793
18.9425
18.1432
17.3957
16.7
16.0555
15.4612
14.9155
14.4167
13.9627
13.5511
13.1795
12.8454
12.5462
12.2793
12.0422
11.8323
11.6474
11.485
11.343
11.2194
11.1122
11.0197
10.9403
10.8724
10.8148
10.7661
10.7253
10.6914
10.6635
10.6408
10.6227
10.6085
10.5977
10.5898
10.5845
10.5814
10.5802
10.5806
10.5824
10.5855
10.5896
10.5946
10.6005
10.607
10.6141
10.6218
10.6299
10.6384
10.6473
10.6565
10.6659
10.6757
10.6856
10.6956
10.705
10.7117
10.7196
10.872
4368.71
-551.663
-353.002
-109.87
-21.6905
6.54956
16.6377
21.3947
24.4798
26.9377
29.0683
30.9547
32.6174
34.0599
35.2819
36.2841
37.0689
37.6408
38.0067
38.1754
38.1574
37.9649
37.6111
37.1105
36.4779
35.7287
34.8785
33.9427
32.9363
31.8742
30.7703
29.638
28.4895
27.3364
26.1889
25.0564
23.9471
22.8681
21.8254
20.8239
19.8677
18.9598
18.1023
17.2966
16.5432
15.8422
15.1929
14.5941
14.0445
13.5422
13.0849
12.6705
12.2963
11.96
11.6587
11.39
11.1513
10.9401
10.7539
10.5904
10.4474
10.3229
10.215
10.1218
10.0418
9.97337
9.91521
9.86609
9.82487
9.79058
9.76233
9.73934
9.7209
9.70643
9.69537
9.68728
9.68174
9.67842
9.67701
9.67725
9.67892
9.68184
9.68583
9.69077
9.69653
9.70301
9.71013
9.71781
9.72599
9.73462
9.74364
9.75302
9.76273
9.77274
9.78301
9.79343
9.80343
9.8113
9.82104
9.95635
4368.7
-551.702
-353.066
-109.96
-21.8055
6.4091
16.4718
21.2036
24.2635
26.6964
28.8021
30.6638
32.3021
33.7204
34.9185
35.8971
36.6586
37.2077
37.5512
37.698
37.6586
37.4452
37.0713
36.551
35.8994
35.1319
34.264
33.3112
32.2887
31.2111
30.0925
28.9462
27.7846
26.619
25.4598
24.3164
23.1968
22.1082
21.0566
20.047
19.0832
18.1683
17.3044
16.4928
15.734
15.0281
14.3744
13.7717
13.2185
12.7129
12.2527
11.8356
11.4592
11.1207
10.8177
10.5473
10.3072
10.0946
9.90726
9.74276
9.59891
9.47363
9.36498
9.27118
9.19057
9.12164
9.06302
9.01347
8.97186
8.93721
8.90862
8.88531
8.86658
8.85182
8.84049
8.83214
8.82636
8.8228
8.82116
8.82119
8.82267
8.8254
8.82923
8.83402
8.83965
8.84603
8.85307
8.86069
8.86885
8.87748
8.88655
8.89602
8.90585
8.91601
8.92648
8.93716
8.94756
8.9563
8.96738
9.08746
4368.69
-551.739
-353.127
-110.046
-21.9164
6.27369
16.312
21.0195
24.0553
26.4642
28.546
30.3842
31.9992
33.3944
34.5698
35.5261
36.2656
36.7931
37.1155
37.2416
37.1821
36.9492
36.5562
36.0175
35.3482
34.5636
33.6793
32.7108
31.6732
30.5813
29.4492
28.29
27.1161
25.9391
24.7692
23.6156
22.4867
21.3893
20.3296
19.3124
18.3417
17.4204
16.5506
15.7336
14.97
14.2597
13.6019
12.9956
12.4391
11.9305
11.4677
11.0483
10.6697
10.3294
10.0246
9.75279
9.5113
9.29758
9.10919
8.94377
8.79909
8.67308
8.56379
8.4694
8.38826
8.31886
8.2598
8.20984
8.16787
8.13287
8.10395
8.08032
8.06129
8.04624
8.03464
8.02602
8.01997
8.01616
8.01428
8.01407
8.01531
8.01783
8.02145
8.02604
8.03149
8.03771
8.0446
8.0521
8.06015
8.06871
8.07773
8.08717
8.09701
8.10721
8.11776
8.12855
8.13919
8.14856
8.1605
8.267
4368.68
-551.774
-353.186
-110.129
-22.0226
6.14412
16.1591
20.8434
23.8562
26.2423
28.3015
30.1173
31.7102
33.0836
34.2376
35.1727
35.8915
36.3988
36.7013
36.8081
36.7298
36.4786
36.0679
35.5121
34.8263
34.0258
33.1263
32.1432
31.0918
29.9867
28.8419
27.6709
26.4859
25.2983
24.1185
22.9557
21.8181
20.7127
19.6456
18.6215
17.6444
16.7173
15.8422
15.0204
14.2523
13.5379
12.8765
12.2669
11.7074
11.1961
10.7309
10.3094
9.92887
9.58682
9.28055
9.00738
8.76469
8.54991
8.36057
8.19431
8.04889
7.92221
7.81231
7.71739
7.63576
7.56591
7.50644
7.45611
7.41378
7.37844
7.3492
7.32527
7.30594
7.2906
7.27872
7.26982
7.2635
7.25942
7.25727
7.2568
7.25779
7.26005
7.26342
7.26778
7.27301
7.279
7.28569
7.293
7.30088
7.30928
7.31817
7.32749
7.33724
7.34738
7.35789
7.36868
7.37941
7.38918
7.40162
7.49601
4368.66
-551.808
-353.243
-110.207
-22.1235
6.02099
16.0139
20.6762
23.6672
26.0317
28.0696
29.8643
31.4363
32.7892
33.923
34.8383
35.5378
36.026
36.3101
36.3988
36.303
36.0348
35.6076
35.036
34.3349
33.5197
32.6062
31.6097
30.5454
29.4282
28.2719
27.09
25.8947
24.6975
23.5086
22.3374
21.1919
20.0793
19.0053
17.975
16.9922
16.0597
15.1798
14.3535
13.5814
12.8634
12.1986
11.586
11.0238
10.5102
10.0428
9.61926
9.23703
8.89344
8.58579
8.3114
8.06762
7.85188
7.66168
7.49465
7.34855
7.22127
7.11082
7.0154
6.93332
6.86306
6.80321
6.75251
6.70985
6.67419
6.64464
6.62041
6.60079
6.58516
6.57299
6.56381
6.55721
6.55285
6.55042
6.54967
6.55037
6.55236
6.55546
6.55954
6.5645
6.57023
6.57667
6.58374
6.59138
6.59956
6.60823
6.61737
6.62693
6.63691
6.64728
6.65796
6.66866
6.67864
6.69128
6.77487
4368.65
-551.84
-353.296
-110.281
-22.2187
5.90474
15.8768
20.5185
23.4889
25.8331
27.851
29.6258
31.1784
32.5121
33.627
34.5239
35.2052
35.6758
35.9426
36.0146
35.9025
35.6186
35.1762
34.5899
33.8747
33.0461
32.1196
31.1107
30.0348
28.9064
27.7396
26.5477
25.343
24.137
22.9399
21.761
20.6083
19.489
18.4089
17.3729
16.3848
15.4476
14.5633
13.733
12.9573
12.2359
11.5682
10.9528
10.3882
9.87237
9.40303
8.97775
8.59396
8.24897
7.94008
7.66459
7.41983
7.20321
7.01223
6.84451
6.69779
6.56995
6.45901
6.36313
6.28063
6.20998
6.14978
6.09875
6.05576
6.0198
5.98995
5.96543
5.94552
5.92961
5.91715
5.90768
5.9008
5.89614
5.89342
5.89238
5.89279
5.89447
5.89727
5.90106
5.90571
5.91115
5.91729
5.92406
5.93142
5.93932
5.94772
5.95659
5.9659
5.97564
5.98578
5.99625
6.0068
6.01684
6.02944
6.1034
4368.64
-551.87
-353.345
-110.351
-22.3082
5.79566
15.7482
20.3705
23.3218
25.647
27.6461
29.4025
30.9368
32.2527
33.3501
34.2297
34.8943
35.3485
35.5994
35.6559
35.5288
35.2304
34.7741
34.1743
33.4461
32.6051
31.6667
30.6466
29.5599
28.4213
27.2449
26.0439
24.8307
23.6167
22.4121
21.2262
20.0671
18.9417
17.856
16.8149
15.8221
14.8805
13.9922
13.1583
12.3793
11.6549
10.9845
10.3667
9.7999
9.28208
8.81097
8.38412
7.99891
7.65267
7.34266
7.06617
6.82053
6.60312
6.41144
6.2431
6.09581
5.96746
5.85606
5.75977
5.67689
5.60588
5.54534
5.494
5.45071
5.41445
5.38432
5.35952
5.33933
5.32313
5.3104
5.30064
5.29347
5.28852
5.2855
5.28415
5.28425
5.28562
5.2881
5.29156
5.29589
5.30099
5.3068
5.31324
5.32027
5.32784
5.33591
5.34446
5.35346
5.36288
5.37272
5.3829
5.39321
5.40317
5.41555
5.48092
4368.63
-551.898
-353.392
-110.416
-22.3916
5.69391
15.6282
20.2325
23.1659
25.4735
27.4552
29.1945
30.712
32.0112
33.0924
33.9562
34.6053
35.0444
35.2806
35.3229
35.182
34.8702
34.401
33.7889
33.0489
32.1966
31.2474
30.217
29.1205
27.9726
26.7874
25.5782
24.3573
23.136
21.9246
20.7323
19.5673
18.4365
17.3458
16.3
15.3029
14.3575
13.4656
12.6284
11.8464
11.1194
10.4465
9.82654
9.25776
8.73817
8.26548
7.83721
7.45074
7.10336
6.79235
6.51496
6.26852
6.05041
5.8581
5.68919
5.54139
5.41258
5.30076
5.20409
5.12086
5.04952
4.98867
4.93703
4.89345
4.85692
4.82652
4.80144
4.78098
4.76451
4.75149
4.74146
4.73399
4.72875
4.72542
4.72376
4.72354
4.72459
4.72673
4.72985
4.73384
4.73859
4.74404
4.75012
4.75678
4.76399
4.77169
4.77986
4.78849
4.79755
4.80701
4.81683
4.82682
4.83659
4.8486
4.90632
4368.63
-551.924
-353.435
-110.476
-22.469
5.59951
15.517
20.1045
23.0215
25.3127
27.2783
29.0017
30.5037
31.7877
32.8539
33.7031
34.3379
34.7632
34.986
35.0152
34.8617
34.5377
34.0568
33.4334
32.6826
31.8199
30.8609
29.8211
28.7158
27.5595
26.3664
25.1497
23.9217
22.6938
21.4763
20.2784
19.1081
17.9723
16.8771
15.8271
14.8262
13.8772
12.9821
12.142
11.3573
10.6279
9.95285
9.3309
8.76036
8.23918
7.76507
7.33552
6.94791
6.59953
6.28761
6.00942
5.76227
5.54351
5.35063
5.18121
5.03295
4.90373
4.79153
4.6945
4.61095
4.53931
4.47817
4.42625
4.38241
4.34561
4.31495
4.28961
4.26888
4.25215
4.23886
4.22854
4.22079
4.21525
4.21162
4.20965
4.20911
4.20982
4.21162
4.21439
4.21801
4.2224
4.22747
4.23317
4.23944
4.24624
4.25354
4.26131
4.26952
4.27816
4.28721
4.29661
4.30622
4.31569
4.32724
4.37814
4368.62
-551.947
-353.475
-110.532
-22.5404
5.51241
15.4144
19.9865
22.8882
25.1645
27.1153
28.8241
30.3118
31.5818
32.6343
33.4702
34.0919
34.5046
34.715
34.7323
34.5673
34.2322
33.7407
33.1071
32.3465
31.4744
30.5065
29.4582
28.3448
27.1809
25.9806
24.7572
23.5229
22.2891
21.066
19.863
18.6879
17.5477
16.4484
15.3946
14.3903
13.4381
12.5401
11.6974
10.9104
10.1788
9.50177
8.87806
8.30593
7.78333
7.30794
6.87726
6.48863
6.13934
5.82662
5.54771
5.29991
5.08058
4.88719
4.7173
4.56863
4.43903
4.32648
4.22914
4.14529
4.07337
4.01196
3.95979
3.91569
3.87865
3.84773
3.82215
3.80117
3.78418
3.77062
3.76003
3.752
3.74617
3.74224
3.73995
3.73909
3.73946
3.74092
3.74333
3.74658
3.75059
3.75527
3.76056
3.76642
3.77281
3.77968
3.78701
3.79478
3.80296
3.81155
3.8205
3.82967
3.83878
3.84978
3.8946
4368.61
-551.969
-353.511
-110.583
-22.606
5.43246
15.3201
19.8782
22.766
25.0285
26.9658
28.6613
30.1359
31.3931
32.4332
33.2568
33.8667
34.2678
34.467
34.4735
34.2981
33.953
33.4517
32.8088
32.0393
31.1588
30.1828
29.1269
28.0062
26.8355
25.6288
24.3993
23.1593
21.9201
20.6921
19.4844
18.305
17.1609
16.058
15.0008
13.9934
13.0384
12.1378
11.2928
10.5036
9.77007
9.09132
8.46604
7.89249
7.36862
6.8921
6.4604
6.07086
5.72076
5.40731
5.12776
4.87939
4.65954
4.46569
4.29539
4.14634
4.01639
3.90353
3.8059
3.72177
3.6496
3.58794
3.53553
3.4912
3.45392
3.42277
3.39695
3.37573
3.35849
3.34468
3.33382
3.32552
3.3194
3.31517
3.31257
3.31139
3.31143
3.31254
3.31459
3.31747
3.32109
3.32537
3.33026
3.3357
3.34164
3.34807
3.35494
3.36224
3.36995
3.37805
3.38651
3.3952
3.4039
3.4143
3.45371
4368.6
-551.989
-353.545
-110.63
-22.6659
5.35944
15.2341
19.7793
22.6544
24.9044
26.8293
28.5127
29.9755
31.2211
32.2497
33.0623
33.6614
34.0521
34.2412
34.2379
34.053
33.6988
33.1888
32.5375
31.7601
30.8719
29.8887
28.8259
27.6987
26.5218
25.3093
24.0743
22.8292
21.5853
20.3529
19.141
17.9578
16.8101
15.7039
14.6438
13.6336
12.6761
11.7732
10.926
10.1349
9.39968
8.71937
8.09269
7.51788
6.99288
6.51534
6.08273
5.69239
5.34156
5.02747
4.74734
4.49845
4.27814
4.08387
3.9132
3.76381
3.63356
3.52041
3.42251
3.33814
3.26572
3.20384
3.1512
3.10665
3.06915
3.03779
3.01174
2.99029
2.97281
2.95876
2.94765
2.93907
2.93268
2.92816
2.92526
2.92376
2.92347
2.92424
2.92593
2.92844
2.93167
2.93556
2.94003
2.94504
2.95054
2.95651
2.96292
2.96974
2.97695
2.98455
2.99249
3.00067
3.00891
3.01868
3.05328
4368.6
-552.008
-353.575
-110.672
-22.7203
5.29307
15.1559
19.6894
22.553
24.7916
26.7054
28.3778
29.8298
31.0649
32.0833
32.8858
33.4753
33.8564
34.0364
34.0243
33.8309
33.4685
32.9507
32.2919
31.5072
30.6122
29.6225
28.5535
27.4205
26.2381
25.0204
23.7805
22.5309
21.2827
20.0463
18.8308
17.6441
16.4933
15.3841
14.3213
13.3087
12.3489
11.444
10.595
9.80219
9.06538
8.38369
7.75576
7.17983
6.65381
6.17537
5.74195
5.35088
4.99941
4.68474
4.40409
4.15474
3.93402
3.73938
3.56837
3.41868
3.28814
3.17474
3.0766
2.99199
2.91936
2.85727
2.80442
2.75967
2.72197
2.69039
2.66413
2.64246
2.62476
2.61047
2.59911
2.59028
2.58362
2.57882
2.57563
2.57382
2.57321
2.57364
2.57498
2.57712
2.57997
2.58346
2.58752
2.5921
2.59716
2.60267
2.60861
2.61494
2.62165
2.62873
2.63614
2.64381
2.65156
2.66067
2.69101
4368.59
-552.024
-353.602
-110.711
-22.7696
5.23305
15.0852
19.6082
22.4613
24.6897
26.5933
28.2559
29.6982
30.9238
31.933
32.7265
33.3072
33.6799
33.8517
33.8316
33.6306
33.2608
32.736
32.0704
31.2794
30.3782
29.3827
28.3082
27.1699
25.9826
24.7603
23.5161
22.2624
21.0104
19.7705
18.5516
17.362
16.2083
15.0966
14.0314
13.0165
12.0548
11.148
10.2973
9.50304
8.76487
8.08194
7.45289
6.87596
6.34905
5.8698
5.43566
5.04394
4.69189
4.3767
4.0956
3.84584
3.62475
3.42977
3.25846
3.10849
2.9777
2.86406
2.7657
2.68089
2.60806
2.54577
2.49273
2.44779
2.40989
2.37812
2.35166
2.32979
2.31187
2.29736
2.28577
2.27669
2.26977
2.26471
2.26123
2.25912
2.2582
2.2583
2.2593
2.26108
2.26356
2.26666
2.27031
2.27447
2.27909
2.28415
2.28961
2.29545
2.30166
2.30822
2.31511
2.32224
2.32948
2.33793
2.36449
4368.59
-552.039
-353.627
-110.745
-22.8139
5.17901
15.0216
19.5351
22.3788
24.598
26.4926
28.1462
29.5798
30.7969
31.7978
32.5833
33.1561
33.5212
33.6857
33.6586
33.4507
33.0744
32.5432
31.8717
31.0749
30.1683
29.1676
28.0881
26.9453
25.7536
24.5271
23.2791
22.0217
20.7664
19.5233
18.3016
17.1092
15.953
14.839
13.7717
12.7549
11.7913
10.883
10.0308
9.23517
8.49579
7.81176
7.18172
6.6039
6.07618
5.59622
5.16143
4.76914
4.41658
4.10093
3.81941
3.56928
3.34786
3.15258
2.98099
2.83078
2.69976
2.58591
2.48734
2.40234
2.32933
2.26686
2.21365
2.16853
2.13045
2.0985
2.07185
2.04978
2.03166
2.01694
2.00513
1.99582
1.98866
1.98333
1.97958
1.97719
1.97597
1.97576
1.97642
1.97786
1.97997
1.98269
1.98594
1.98969
1.99388
1.99849
2.00349
2.00885
2.01457
2.02061
2.02697
2.03357
2.0403
2.04809
2.07129
4368.58
-552.052
-353.649
-110.776
-22.8537
5.13059
14.9646
19.4695
22.3049
24.5158
26.4023
28.0481
29.4738
30.6834
31.6768
32.4551
33.021
33.3793
33.5372
33.5038
33.2898
32.9077
32.371
31.6941
30.8922
29.9808
28.9754
27.8917
26.7447
25.5491
24.319
23.0675
21.807
20.5486
19.3028
18.0784
16.8836
15.7253
14.6092
13.54
12.5215
11.5564
10.6466
9.79307
8.99626
8.2558
7.5708
6.93988
6.36126
5.83283
5.35222
4.91687
4.52406
4.17104
3.85498
3.57309
3.32262
3.1009
2.90535
2.73352
2.58308
2.45185
2.33781
2.23906
2.15389
2.0807
2.01807
1.9647
1.91941
1.88117
1.84905
1.82223
1.79998
1.78167
1.76674
1.75472
1.7452
1.7378
1.73223
1.72822
1.72556
1.72405
1.72354
1.72388
1.72499
1.72675
1.7291
1.73197
1.73532
1.73909
1.74327
1.74781
1.75271
1.75793
1.76347
1.76931
1.77539
1.7816
1.78876
1.80899
4368.58
-552.064
-353.669
-110.804
-22.8891
5.0874
14.9137
19.4111
22.239
24.4426
26.3219
27.9605
29.3794
30.5822
31.5691
32.341
32.9006
33.253
33.4051
33.366
33.1467
32.7594
32.2178
31.5362
30.7297
29.814
28.8046
27.717
26.5663
25.3673
24.134
22.8795
21.6161
20.3551
19.1068
17.8802
16.6833
15.523
14.405
13.3342
12.3141
11.3476
10.4365
9.58188
8.78402
8.0426
7.35672
6.72502
6.1457
5.61664
5.13546
4.69958
4.30632
3.95288
3.63645
3.35423
3.10347
2.88148
2.68568
2.51363
2.36298
2.23157
2.11734
2.01843
1.9331
1.85976
1.79697
1.74345
1.69801
1.65962
1.62734
1.60035
1.57793
1.55944
1.54433
1.53212
1.52239
1.51477
1.50897
1.50472
1.5018
1.50002
1.49921
1.49926
1.50005
1.50147
1.50347
1.50598
1.50894
1.51231
1.51607
1.52018
1.52462
1.52937
1.53442
1.53976
1.54532
1.55103
1.55756
1.57518
4368.57
-552.075
-353.687
-110.828
-22.9206
5.04907
14.8686
19.3593
22.1805
24.3776
26.2505
27.8829
29.2956
30.4924
31.4735
32.2398
32.7939
33.141
33.2879
33.244
33.0199
32.6281
32.082
31.3962
30.5859
29.6664
28.6533
27.5623
26.4085
25.2064
23.9702
22.7131
21.4472
20.1839
18.9334
17.7047
16.5059
15.3439
14.2244
13.1521
12.1307
11.1629
10.2507
9.39501
8.5962
7.85393
7.16728
6.53488
5.95493
5.4253
4.9436
4.50727
4.1136
3.75979
3.44302
3.1605
2.90947
2.68723
2.49122
2.31896
2.16813
2.03654
1.92216
1.82309
1.73761
1.66413
1.6012
1.54754
1.50196
1.46342
1.431
1.40386
1.38128
1.36263
1.34735
1.33495
1.32502
1.3172
1.31119
1.30671
1.30354
1.3015
1.30043
1.30019
1.30067
1.30179
1.30345
1.30561
1.3082
1.31119
1.31455
1.31824
1.32224
1.32654
1.33113
1.33597
1.34104
1.34625
1.35219
1.3675
4368.57
-552.084
-353.702
-110.85
-22.9484
5.01518
14.8287
19.3134
22.1289
24.3202
26.1874
27.8143
29.2217
30.4132
31.3892
32.1504
32.6998
33.0421
33.1846
33.1363
32.908
32.5122
31.9623
31.2729
30.459
29.5362
28.52
27.426
26.2693
25.0646
23.8259
22.5664
21.2984
20.033
18.7806
17.5501
16.3497
15.1861
14.0652
12.9916
11.969
11.0001
10.0869
9.23031
8.43066
7.68763
7.00029
6.36727
5.78675
5.25661
4.77445
4.33771
3.94366
3.58951
3.27245
2.98966
2.73838
2.51592
2.3197
2.14726
1.99626
1.86451
1.74998
1.65077
1.56515
1.49154
1.42849
1.3747
1.32899
1.29032
1.25776
1.23048
1.20776
1.18895
1.17351
1.16094
1.15083
1.14282
1.1366
1.1319
1.12851
1.12623
1.12491
1.1244
1.1246
1.12541
1.12676
1.12859
1.13084
1.13346
1.13644
1.13973
1.14332
1.14719
1.15133
1.15571
1.1603
1.16504
1.17041
1.18369
4368.57
-552.092
-353.716
-110.869
-22.9728
4.98538
14.7936
19.2731
22.0834
24.2697
26.132
27.754
29.1567
30.3436
31.315
32.0719
32.6171
32.9553
33.0939
33.0417
32.8098
32.4105
31.8573
31.1646
30.3477
29.422
28.403
27.3064
26.1473
24.9403
23.6994
22.4378
21.1678
19.9006
18.6465
17.4145
16.2126
15.0477
13.9255
12.8507
11.8271
10.8573
9.94314
9.08572
8.28533
7.54162
6.85367
6.22008
5.63905
5.10845
4.62589
4.18877
3.79438
3.43993
3.12259
2.83955
2.58805
2.36539
2.16898
1.99637
1.84521
1.71332
1.59865
1.49931
1.41357
1.33983
1.27666
1.22275
1.17692
1.13813
1.10545
1.07804
1.05518
1.03623
1.02063
1.00791
0.997632
0.989445
0.983036
0.978143
0.974539
0.972036
0.970472
0.969713
0.969648
0.970182
0.971238
0.972754
0.974676
0.976963
0.979579
0.982499
0.985698
0.98916
0.99287
0.996811
1.00095
1.00524
1.01008
1.02157
4368.57
-552.099
-353.728
-110.886
-22.9942
4.95928
14.7629
19.2379
22.0437
24.2255
26.0835
27.7013
29.0998
30.2827
31.2502
32.0033
32.5447
32.8795
33.0145
32.9591
32.724
32.3216
31.7655
31.0701
30.2505
29.3222
28.3009
27.202
26.0407
24.8316
23.5888
22.3254
21.0538
19.785
18.5294
17.296
16.0929
14.9268
13.8035
12.7277
11.7031
10.7324
9.81747
8.95933
8.15827
7.41395
6.72544
6.09135
5.50986
4.97884
4.4959
4.05844
3.66374
3.30901
2.99142
2.70816
2.45644
2.23359
2.03702
1.86425
1.71294
1.58091
1.46612
1.36666
1.2808
1.20695
1.14367
1.08965
1.04371
1.00481
0.972005
0.944476
0.921491
0.902411
0.886678
0.873805
0.863374
0.855023
0.84844
0.843362
0.839562
0.836851
0.835067
0.834075
0.833763
0.834037
0.834819
0.836046
0.837664
0.839632
0.841914
0.844483
0.847316
0.850395
0.853707
0.857234
0.860949
0.864807
0.869148
0.879077
4368.56
-552.106
-353.738
-110.9
-23.0129
4.93653
14.7361
19.2071
22.009
24.187
26.0412
27.6554
29.0503
30.2297
31.1938
31.9436
32.4818
32.8135
32.9456
32.8873
32.6494
32.2444
31.6857
30.9879
30.166
29.2355
28.2121
27.1112
25.948
24.7372
23.4928
22.2278
20.9546
19.6845
18.4276
17.193
15.9887
14.8216
13.6973
12.6206
11.5952
10.6237
9.70809
8.84929
8.04763
7.30276
6.61375
5.9792
5.3973
4.8659
4.38261
3.94484
3.54986
3.19487
2.87705
2.59357
2.34166
2.11864
1.9219
1.74898
1.59754
1.46539
1.35047
1.2509
1.16493
1.09098
1.02759
0.973467
0.927425
0.888417
0.855507
0.827867
0.804766
0.785565
0.769704
0.756697
0.746123
0.73762
0.730878
0.725629
0.721649
0.718746
0.716759
0.715552
0.715012
0.715045
0.715573
0.716531
0.717867
0.719539
0.72151
0.723752
0.726245
0.728968
0.731907
0.735048
0.738365
0.741821
0.745697
0.754256
4368.56
-552.111
-353.747
-110.913
-23.0291
4.91679
14.7129
19.1804
21.979
24.1536
26.0046
27.6156
29.0074
30.1837
31.1449
31.8919
32.4274
32.7563
32.8859
32.8251
32.5849
32.1776
31.6167
30.9168
30.0929
29.1606
28.1353
27.0328
25.868
24.6556
23.4097
22.1434
20.8689
19.5976
18.3395
17.1039
15.8986
14.7305
13.6054
12.5279
11.5017
10.5296
9.6133
8.75391
7.95172
7.20634
6.51688
5.88191
5.29962
4.76788
4.28427
3.8462
3.45096
3.09573
2.77769
2.49401
2.24192
2.01873
1.82185
1.64879
1.49722
1.36494
1.24991
1.15023
1.06416
0.990113
0.92663
0.872408
0.826271
0.787165
0.754155
0.726412
0.703205
0.683892
0.667913
0.654782
0.644078
0.635436
0.628546
0.623141
0.618995
0.615916
0.613742
0.612337
0.611588
0.611399
0.611693
0.612404
0.61348
0.614878
0.616562
0.618503
0.620679
0.623072
0.625668
0.62845
0.631397
0.634477
0.637923
0.645285
4368.56
-552.116
-353.755
-110.924
-23.0431
4.89974
14.6928
19.1574
21.953
24.1248
25.973
27.5812
28.9704
30.1441
31.1028
31.8473
32.3805
32.7071
32.8345
32.7716
32.5294
32.1201
31.5574
30.8557
30.0301
29.0961
28.0693
26.9653
25.7991
24.5854
23.3382
22.0707
20.7952
19.5228
18.2638
17.0272
15.821
14.6521
13.5262
12.448
11.4212
10.4484
9.53154
8.67163
7.86893
7.12311
6.43322
5.79787
5.21522
4.68315
4.19925
3.76091
3.36542
3.00997
2.69172
2.40785
2.15559
1.93224
1.73521
1.56201
1.41032
1.27793
1.16279
1.06301
0.976844
0.902699
0.839124
0.784812
0.738584
0.699387
0.666285
0.638446
0.61514
0.595724
0.579638
0.566393
0.555569
0.5468
0.539776
0.534228
0.52993
0.52669
0.524346
0.522759
0.521818
0.521426
0.521506
0.521991
0.522828
0.523974
0.525394
0.527058
0.528944
0.531033
0.533311
0.535763
0.538368
0.5411
0.544151
0.55047
4368.56
-552.12
-353.762
-110.933
-23.0552
4.88506
14.6756
19.1376
21.9307
24.1001
25.9459
27.5517
28.9386
30.1102
31.0667
31.8091
32.3403
32.665
32.7905
32.7258
32.4819
32.0709
31.5066
30.8034
29.9764
29.041
28.0129
26.9076
25.7402
24.5254
23.2772
22.0086
20.7321
19.4588
18.1989
16.9615
15.7546
14.5849
13.4584
12.3795
11.3521
10.3788
9.46138
8.60097
7.79783
7.05158
6.36131
5.72559
5.14262
4.61024
4.12606
3.68746
3.29174
2.93606
2.61762
2.33357
2.08114
1.85764
1.66046
1.48714
1.33533
1.20283
1.08758
0.987704
0.901444
0.827208
0.763547
0.709149
0.662836
0.623554
0.590365
0.562438
0.53904
0.51953
0.503344
0.489996
0.479061
0.470177
0.46303
0.457352
0.452916
0.449529
0.447029
0.445278
0.444162
0.443585
0.443469
0.443747
0.444367
0.445284
0.446462
0.447873
0.449493
0.451304
0.453291
0.455439
0.457731
0.460143
0.462833
0.468243
4368.56
-552.123
-353.768
-110.941
-23.0655
4.87249
14.6608
19.1206
21.9116
24.0789
25.9227
27.5265
28.9115
30.0812
31.0359
31.7766
32.306
32.6291
32.753
32.6869
32.4415
32.0291
31.4635
30.759
29.9307
28.9942
27.965
26.8587
25.6902
24.4745
23.2253
21.9559
20.6785
19.4044
18.1438
16.9056
15.698
14.5278
13.4006
12.3212
11.2932
10.3193
9.40149
8.54064
7.73707
6.99044
6.2998
5.66374
5.08046
4.54779
4.06333
3.62449
3.22854
2.87265
2.55401
2.26978
2.01719
1.79354
1.59623
1.42278
1.27085
1.13824
1.0229
0.92292
0.836569
0.762247
0.698501
0.644021
0.597627
0.558265
0.524995
0.496985
0.473503
0.453905
0.437629
0.424185
0.41315
0.40416
0.396901
0.391105
0.386544
0.383025
0.380383
0.378482
0.377208
0.376463
0.376169
0.37626
0.376682
0.377391
0.37835
0.37953
0.380908
0.382466
0.384187
0.38606
0.388066
0.390184
0.392546
0.397168
4368.56
-552.126
-353.773
-110.948
-23.0744
4.86174
14.6481
19.1062
21.8953
24.0609
25.9029
27.5051
28.8884
30.0565
31.0097
31.749
32.277
32.5987
32.7214
32.6539
32.4073
31.9938
31.4271
30.7215
29.8923
28.9548
27.9246
26.8174
25.6481
24.4315
23.1815
21.9114
20.6333
19.3585
18.0972
16.8585
15.6502
14.4794
13.3517
12.2717
11.2433
10.269
9.35067
8.4894
7.68545
6.93845
6.24746
5.61109
5.0275
4.49455
4.00984
3.57076
3.17458
2.81849
2.49966
2.21525
1.9625
1.7387
1.54125
1.36768
1.21563
1.08291
0.967462
0.867393
0.780953
0.706545
0.642718
0.588159
0.541688
0.502249
0.468902
0.440816
0.417255
0.397576
0.381216
0.367684
0.356559
0.347473
0.340112
0.334209
0.329534
0.325894
0.323125
0.32109
0.319672
0.318776
0.318321
0.318243
0.318486
0.319006
0.319766
0.320738
0.321897
0.323225
0.324707
0.326329
0.328075
0.329926
0.331991
0.335931
4368.56
-552.129
-353.777
-110.954
-23.0819
4.85257
14.6374
19.0938
21.8815
24.0455
25.8861
27.4869
28.8689
30.0357
30.9876
31.7257
32.2525
32.5732
32.6947
32.6262
32.3786
31.9642
31.3966
30.6902
29.86
28.9218
27.8909
26.7828
25.6129
24.3956
23.145
21.8742
20.5955
19.3201
18.0582
16.8189
15.6102
14.4388
13.3106
12.2302
11.2013
10.2265
9.30784
8.44619
7.64187
6.89451
6.2032
5.56652
4.98264
4.44942
3.96445
3.52513
3.12873
2.77244
2.45341
2.16884
1.91592
1.69197
1.49439
1.32068
1.16852
1.03569
0.920141
0.819976
0.733448
0.658956
0.595049
0.540413
0.493867
0.454355
0.420936
0.392777
0.369142
0.349388
0.332951
0.31934
0.30813
0.298957
0.291504
0.285504
0.280727
0.276978
0.274095
0.271937
0.270391
0.269358
0.26876
0.268529
0.268611
0.268961
0.269543
0.270327
0.271289
0.27241
0.273675
0.27507
0.276582
0.278193
0.27999
0.28334
4368.56
-552.131
-353.78
-110.959
-23.0883
4.84476
14.6282
19.0834
21.8697
24.0325
25.8719
27.4715
28.8524
30.0181
30.969
31.7061
32.232
32.5517
32.6724
32.6031
32.3547
31.9396
31.3712
30.6641
29.8333
28.8944
27.8629
26.7542
25.5837
24.3658
23.1147
21.8433
20.5641
19.2882
18.0259
16.7861
15.5769
14.4051
13.2764
12.1956
11.1662
10.1911
9.27203
8.41001
7.60534
6.85765
6.16602
5.52904
4.94487
4.41138
3.92616
3.48661
3.08998
2.73348
2.41427
2.12952
1.87644
1.65234
1.45461
1.28078
1.12849
0.995552
0.879902
0.779642
0.693024
0.618449
0.554463
0.499751
0.453133
0.41355
0.380061
0.351833
0.328129
0.308305
0.291796
0.278111
0.266825
0.257572
0.250036
0.243948
0.239079
0.235233
0.232246
0.229979
0.228317
0.227163
0.226435
0.226068
0.226006
0.226204
0.226626
0.227241
0.228026
0.228962
0.230032
0.231225
0.232525
0.233919
0.235477
0.238318
4368.56
-552.133
-353.783
-110.963
-23.0938
4.83809
14.6204
19.0744
21.8597
24.0215
25.8598
27.4585
28.8385
30.0033
30.9534
31.6897
32.2148
32.5339
32.6539
32.584
32.335
31.9192
31.3503
30.6426
29.8114
28.8719
27.8399
26.7308
25.5598
24.3415
23.0899
21.8181
20.5385
19.2621
17.9993
16.7591
15.5495
14.3773
13.2483
12.167
11.1373
10.1618
9.24237
8.38
7.57499
6.82698
6.13504
5.49775
4.91331
4.37955
3.89408
3.45428
3.05744
2.70073
2.38132
2.09638
1.84314
1.61888
1.42101
1.24704
1.09464
0.961582
0.845827
0.74547
0.658762
0.584102
0.520036
0.465249
0.418559
0.378907
0.345351
0.317057
0.293288
0.273398
0.256822
0.243069
0.231713
0.222388
0.214776
0.208609
0.203656
0.199723
0.196643
0.194279
0.192514
0.19125
0.190407
0.189918
0.189727
0.18979
0.190069
0.190534
0.191161
0.191931
0.192828
0.193839
0.194951
0.196151
0.197494
0.199898
4368.56
-552.134
-353.786
-110.967
-23.0986
4.83236
14.6137
19.0668
21.8512
24.0121
25.8496
27.4476
28.8267
29.9909
30.9404
31.676
32.2006
32.5191
32.6386
32.5682
32.3187
31.9026
31.3332
30.6252
29.7935
28.8537
27.8213
26.7119
25.5405
24.3219
23.0699
21.7978
20.5177
19.2411
17.9779
16.7374
15.5274
14.3548
13.2254
12.1438
11.1137
10.1379
9.21808
8.35538
7.55004
6.80171
6.10946
5.47188
4.88715
4.35312
3.86739
3.42736
3.03028
2.67336
2.35375
2.06863
1.81521
1.59079
1.39277
1.21867
1.06613
0.932961
0.817098
0.716641
0.62984
0.555093
0.490947
0.436085
0.389323
0.349603
0.315982
0.287624
0.263792
0.24384
0.227201
0.213385
0.201965
0.192573
0.184893
0.178654
0.173627
0.169614
0.166452
0.164001
0.162144
0.160783
0.159837
0.15924
0.158935
0.158877
0.159029
0.15936
0.159847
0.16047
0.161212
0.162062
0.163006
0.164033
0.165187
0.167215
4368.55
-552.136
-353.788
-110.97
-23.1027
4.82738
14.6079
19.0602
21.8438
24.004
25.8409
27.4382
28.8168
29.9804
30.9294
31.6646
32.1887
32.5068
32.626
32.5553
32.3055
31.8891
31.3194
30.6111
29.7792
28.8392
27.8065
26.6968
25.5252
24.3063
23.0541
21.7817
20.5013
19.2244
17.9609
16.7201
15.5097
14.3368
13.2071
12.1252
11.0948
10.1186
9.19848
8.33544
7.52978
6.78114
6.08859
5.45071
4.8657
4.3314
3.84541
3.40512
3.00781
2.65067
2.33085
2.04554
1.79194
1.56735
1.36917
1.19493
1.04226
0.908965
0.79299
0.692429
0.605532
0.530697
0.466469
0.41153
0.364696
0.324908
0.291222
0.262801
0.238909
0.218898
0.202201
0.188326
0.176846
0.167393
0.15965
0.153347
0.148251
0.144169
0.140933
0.138404
0.136464
0.135017
0.133981
0.133287
0.132881
0.132716
0.132756
0.132969
0.133332
0.133824
0.13443
0.135137
0.135932
0.136805
0.137792
0.139499
4368.55
-552.137
-353.79
-110.973
-23.1063
4.82299
14.6028
19.0544
21.8374
23.997
25.8333
27.4301
28.8083
29.9715
30.9201
31.655
32.1789
32.4967
32.6156
32.5447
32.2948
31.8782
31.3084
30.6
29.7679
28.8277
27.795
26.6851
25.5133
24.2942
23.0418
21.7692
20.4887
19.2115
17.9478
16.7066
15.4961
14.3229
13.1928
12.1106
11.0799
10.1034
9.18295
8.3196
7.51362
6.76467
6.07181
5.43363
4.84833
4.31375
3.82749
3.38695
2.9894
2.63203
2.312
2.02648
1.77269
1.54792
1.34958
1.17519
1.02238
0.888958
0.772864
0.672195
0.585198
0.510272
0.445958
0.390941
0.344034
0.304178
0.270427
0.241946
0.217995
0.197926
0.181173
0.167242
0.155707
0.146198
0.138398
0.132035
0.126879
0.122733
0.119431
0.116833
0.114821
0.113297
0.11218
0.111402
0.110907
0.110648
0.110588
0.110698
0.110951
0.111328
0.111813
0.112394
0.113059
0.113796
0.114634
0.116067
4368.55
-552.138
-353.792
-110.976
-23.1096
4.81902
14.5982
19.0492
21.8317
23.9908
25.8267
27.4231
28.8009
29.9638
30.9122
31.6468
32.1705
32.4883
32.6071
32.5361
32.2861
31.8695
31.2997
30.5912
29.7592
28.8189
27.7861
26.6762
25.5044
24.2852
23.0327
21.7599
20.4793
19.2019
17.938
16.6966
15.4858
14.3124
13.182
12.0995
11.0685
10.0917
9.17098
8.30731
7.50102
6.75175
6.05858
5.42011
4.83451
4.29964
3.81311
3.3723
2.9745
2.61688
2.29663
2.01089
1.75691
1.53196
1.33345
1.15889
1.00594
0.872379
0.756162
0.655379
0.568278
0.493255
0.428854
0.373756
0.326774
0.286848
0.253033
0.22449
0.200481
0.180357
0.16355
0.149566
0.137979
0.128417
0.120565
0.114149
0.108938
0.104735
0.101374
0.0987136
0.0966373
0.095046
0.0938579
0.0930048
0.0924306
0.0920892
0.0919427
0.0919604
0.0921174
0.0923936
0.0927732
0.0932433
0.0937926
0.094411
0.09512
0.0963183
4368.55
-552.139
-353.794
-110.978
-23.1127
4.81532
14.5939
19.0444
21.8264
23.9851
25.8206
27.4167
28.7943
29.957
30.9052
31.6398
32.1635
32.4812
32.6
32.5291
32.2792
31.8626
31.2929
30.5845
29.7525
28.8124
27.7796
26.6698
25.4979
24.2787
23.0262
21.7534
20.4726
19.1951
17.9311
16.6895
15.4785
14.3049
13.1743
12.0915
11.0602
10.0831
9.16209
8.29811
7.49151
6.74193
6.04845
5.40966
4.82376
4.2886
3.80177
3.36069
2.96262
2.60476
2.28427
1.99831
1.74411
1.51897
1.32028
1.14555
0.992442
0.858742
0.742393
0.64149
0.554279
0.479156
0.414663
0.359481
0.312422
0.272425
0.238544
0.209939
0.185873
0.165693
0.148834
0.1348
0.123163
0.113553
0.105652
0.0991863
0.0939253
0.0896711
0.086257
0.0835422
0.0814087
0.0797577
0.0785069
0.0775881
0.0769449
0.0765309
0.0763081
0.0762457
0.0763185
0.0765065
0.0767936
0.0771669
0.0776154
0.0781294
0.0787254
0.0797249
4368.55
-552.14
-353.796
-110.981
-23.1157
4.81175
14.5898
19.0399
21.8214
23.9797
25.815
27.4108
28.7882
29.9509
30.899
31.6335
32.1572
32.475
32.594
32.5232
32.2735
31.8571
31.2876
30.5794
29.7476
28.8076
27.775
26.6653
25.4936
24.2745
23.0219
21.7491
20.4684
19.1908
17.9266
16.685
15.4738
14.3
13.1692
12.0862
11.0546
10.0772
9.15588
8.2916
7.48469
6.73478
6.04098
5.40188
4.81567
4.2802
3.79308
3.35171
2.95337
2.59524
2.2745
1.9883
1.73388
1.50853
1.30965
1.13475
0.981473
0.847622
0.731134
0.630104
0.542777
0.467548
0.402959
0.347688
0.300549
0.260479
0.22653
0.197863
0.173738
0.153505
0.136594
0.122511
0.110827
0.101171
0.0932235
0.0867128
0.0814061
0.0771055
0.0736438
0.07088
0.0686957
0.0669919
0.0656859
0.0647094
0.0640057
0.0635283
0.0632389
0.0631065
0.063106
0.063217
0.0634235
0.0637124
0.0640732
0.0644963
0.064994
0.0658248
4368.55
-552.141
-353.798
-110.983
-23.1187
4.80818
14.5857
19.0353
21.8165
23.9745
25.8094
27.4051
28.7824
29.945
30.8931
31.6278
32.1516
32.4696
32.5888
32.5182
32.2687
31.8526
31.2834
30.5755
29.744
28.8043
27.772
26.6625
25.4909
24.272
23.0196
21.7469
20.4661
19.1885
17.9244
16.6826
15.4713
14.2973
13.1663
12.0831
11.0513
10.0736
9.15201
8.28742
7.48019
6.72997
6.03585
5.39642
4.80988
4.2741
3.78667
3.345
2.94637
2.58796
2.26696
1.98051
1.72586
1.50029
1.3012
1.12611
0.972664
0.838652
0.722017
0.620852
0.533402
0.458062
0.39337
0.338008
0.290785
0.250638
0.216619
0.187888
0.163704
0.143417
0.126455
0.112324
0.100594
0.0908933
0.0829032
0.0763504
0.0710015
0.0666586
0.063154
0.0603464
0.0581169
0.0563663
0.0550118
0.0539846
0.053228
0.0526952
0.0523478
0.0521546
0.0520902
0.0521344
0.0522709
0.0524866
0.0527711
0.0531153
0.0535279
0.054216
4368.55
-552.142
-353.799
-110.986
-23.1218
4.80448
14.5815
19.0306
21.8114
23.9691
25.8038
27.3994
28.7766
29.9392
30.8874
31.6222
32.1462
32.4645
32.584
32.5137
32.2647
31.8489
31.2801
30.5726
29.7415
28.8022
27.7702
26.661
25.4897
24.271
23.0188
21.7463
20.4656
19.1881
17.9239
16.6821
15.4707
14.2966
13.1654
12.082
11.05
10.0721
9.15016
8.28528
7.47773
6.72719
6.03273
5.39297
4.8061
4.26999
3.78223
3.34025
2.94132
2.58262
2.26134
1.97463
1.71973
1.49393
1.29463
1.11933
0.965699
0.831516
0.714724
0.613416
0.525836
0.450377
0.385578
0.330118
0.282807
0.24258
0.208489
0.179692
0.155449
0.135105
0.118093
0.103914
0.0921392
0.0823961
0.0743652
0.0677726
0.0623847
0.0580029
0.0544594
0.0516122
0.0493425
0.0475505
0.0461531
0.0450816
0.0442787
0.0436976
0.0432997
0.0430537
0.042934
0.0429203
0.0429962
0.0431487
0.0433672
0.0436431
0.0439822
0.04455
4368.55
-552.144
-353.801
-110.988
-23.1252
4.80052
14.577
19.0256
21.806
23.9634
25.7979
27.3933
28.7705
29.9331
30.8815
31.6165
32.1408
32.4594
32.5793
32.5095
32.2609
31.8457
31.2774
30.5704
29.7397
28.8009
27.7693
26.6606
25.4897
24.2713
23.0194
21.747
20.4665
19.1891
17.925
16.6832
15.4718
14.2976
13.1663
12.0827
11.0504
10.0723
9.15009
8.28491
7.47705
6.72617
6.03138
5.39127
4.80406
4.26761
3.77952
3.3372
2.93795
2.57895
2.25737
1.97039
1.71523
1.48918
1.28965
1.11414
0.960308
0.825943
0.708985
0.607525
0.519806
0.444222
0.379309
0.323746
0.276342
0.236031
0.201864
0.173
0.148694
0.128294
0.11123
0.0970034
0.0851841
0.0753995
0.0673291
0.0606988
0.0552742
0.0508566
0.0472774
0.0443946
0.0420887
0.0402598
0.0388247
0.0377141
0.0368708
0.0362477
0.0358059
0.0355141
0.0353467
0.035283
0.0353066
0.0354044
0.0355661
0.0357831
0.0360591
0.0365257
4368.55
-552.145
-353.803
-110.991
-23.1288
4.79619
14.5721
19.0202
21.8002
23.9572
25.7915
27.3868
28.7639
29.9267
30.8752
31.6105
32.1352
32.4542
32.5745
32.5053
32.2572
31.8426
31.2749
30.5685
29.7385
28.8002
27.7692
26.6609
25.4905
24.2725
23.0209
21.7489
20.4687
19.1914
17.9274
16.6857
15.4743
14.3
13.1686
12.0848
11.0524
10.074
9.15156
8.28608
7.47791
6.7267
6.03156
5.39111
4.80354
4.26673
3.77829
3.33563
2.93605
2.57673
2.25484
1.96756
1.71212
1.48581
1.28604
1.1103
0.956261
0.821703
0.704568
0.602946
0.51508
0.439362
0.374328
0.318656
0.271154
0.230755
0.196509
0.167573
0.143202
0.122744
0.105627
0.091353
0.0794895
0.0696638
0.0615552
0.0548885
0.0494293
0.0449781
0.0413661
0.0384506
0.0361122
0.0342504
0.0327818
0.0316369
0.0307582
0.0300984
0.0296187
0.0292873
0.0290785
0.0289717
0.0289503
0.0290013
0.0291142
0.0292806
0.0295024
0.0298841
4368.55
-552.146
-353.806
-110.994
-23.1329
4.79138
14.5666
19.0141
21.7936
23.9503
25.7844
27.3796
28.7567
29.9196
30.8683
31.6039
32.129
32.4485
32.5694
32.5008
32.2534
31.8395
31.2725
30.5668
29.7374
28.7998
27.7695
26.6618
25.492
24.2745
23.0234
21.7517
20.4718
19.1948
17.931
16.6894
15.478
14.3037
13.1722
12.0883
11.0557
10.0771
9.15439
8.28862
7.48013
6.72859
6.0331
5.39228
4.80435
4.26717
3.77836
3.33535
2.93541
2.57575
2.25354
1.96596
1.71022
1.48364
1.2836
1.10763
0.953362
0.818599
0.701275
0.599481
0.511458
0.435598
0.370437
0.314649
0.267043
0.226551
0.192221
0.16321
0.138773
0.118254
0.101083
0.0867597
0.0748515
0.064985
0.0568385
0.0501367
0.0446442
0.0401613
0.0365186
0.0335732
0.0312052
0.0293139
0.0278154
0.0266402
0.0257305
0.0250388
0.024526
0.0241604
0.023916
0.0237722
0.0237122
0.0237229
0.023794
0.0239171
0.0240927
0.0244033
4368.55
-552.148
-353.808
-110.998
-23.1374
4.78597
14.5604
19.0073
21.7863
23.9426
25.7764
27.3714
28.7486
29.9115
30.8606
31.5965
32.1221
32.4421
32.5637
32.4958
32.2492
31.836
31.2698
30.565
29.7364
28.7996
27.77
26.6631
25.4939
24.277
23.0264
21.7553
20.4757
19.1991
17.9355
16.694
15.4827
14.3085
13.1769
12.093
11.0602
10.0814
9.15841
8.29236
7.48356
6.73168
6.03583
5.39464
4.80633
4.26877
3.77958
3.33619
2.93589
2.57587
2.25332
1.96541
1.70936
1.48249
1.28218
1.10595
0.951446
0.816464
0.69894
0.596963
0.508774
0.432763
0.367465
0.311555
0.263839
0.223248
0.18883
0.15974
0.135233
0.114652
0.0974245
0.0830507
0.0710971
0.0611894
0.0530053
0.0462688
0.0407441
0.0362309
0.0325593
0.0295861
0.0271909
0.0252728
0.0237477
0.0225455
0.0216085
0.0208889
0.0203475
0.0199522
0.0196772
0.0195015
0.0194085
0.0193848
0.0194202
0.0195064
0.0196426
0.0198938
4368.55
-552.15
-353.811
-111.002
-23.1426
4.77986
14.5535
18.9996
21.778
23.9339
25.7673
27.3622
28.7394
29.9025
30.8518
31.5881
32.1142
32.4349
32.5572
32.4901
32.2443
31.832
31.2668
30.5628
29.7352
28.7993
27.7706
26.6645
25.4961
24.2799
23.03
21.7593
20.4803
19.204
17.9407
16.6995
15.4884
14.3141
13.1826
12.0986
11.0657
10.0867
9.16349
8.29716
7.48805
6.73582
6.03961
5.39805
4.80934
4.27139
3.78181
3.33803
2.93734
2.57695
2.25404
1.96578
1.70941
1.48222
1.28162
1.10512
0.950372
0.815159
0.697422
0.595251
0.506885
0.430714
0.365271
0.309231
0.261398
0.220703
0.186192
0.157019
0.132438
0.111792
0.0945057
0.0800798
0.0680796
0.0581301
0.0499082
0.0431372
0.0375809
0.0330383
0.0293392
0.0263399
0.0239195
0.0219769
0.0204277
0.0192015
0.0182404
0.0174963
0.0169299
0.016509
0.0162076
0.0160047
0.0158833
0.0158303
0.0158352
0.01589
0.0159929
0.0161946
4368.55
-552.152
-353.815
-111.007
-23.1484
4.77296
14.5456
18.9909
21.7686
23.9239
25.7571
27.3517
28.7288
29.8921
30.8417
31.5784
32.1051
32.4265
32.5496
32.4834
32.2385
31.8273
31.2631
30.5602
29.7336
28.7988
27.771
26.6659
25.4983
24.283
23.0338
21.7638
20.4853
19.2095
17.9466
16.7057
15.4947
14.3206
13.1892
12.1051
11.0721
10.0929
9.1695
8.30291
7.49348
6.74092
6.04434
5.40239
4.81328
4.27492
3.78493
3.34074
2.93965
2.57887
2.25558
1.96696
1.71025
1.48274
1.28183
1.10504
0.950025
0.814566
0.696604
0.594226
0.505673
0.429331
0.363735
0.307557
0.2596
0.218795
0.184185
0.154925
0.130266
0.109551
0.0922039
0.0777239
0.0656756
0.0556832
0.0474229
0.0406174
0.0350297
0.0304584
0.0267327
0.0237085
0.0212645
0.0192993
0.0177281
0.0164804
0.0154977
0.0147321
0.0141439
0.0137008
0.0133766
0.0131502
0.0130047
0.0129266
0.0129057
0.0129339
0.0130085
0.0131691
4368.55
-552.154
-353.819
-111.012
-23.155
4.76517
14.5367
18.9811
21.758
23.9127
25.7454
27.3398
28.7168
29.8802
30.8301
31.5674
32.0946
32.4168
32.5408
32.4755
32.2318
31.8216
31.2586
30.5569
29.7315
28.7977
27.7711
26.667
25.5005
24.2861
23.0377
21.7685
20.4906
19.2154
17.953
16.7124
15.5018
14.3278
13.1965
12.1124
11.0793
10.1
9.17635
8.3095
7.49977
6.74687
6.04992
5.40757
4.81805
4.27927
3.78885
3.34424
2.94273
2.58155
2.25786
1.96886
1.71178
1.48392
1.28269
1.1056
0.950306
0.814588
0.696386
0.59379
0.505037
0.428515
0.362757
0.306432
0.258344
0.217422
0.182708
0.153355
0.128614
0.107827
0.090416
0.0758795
0.0637814
0.0537448
0.0454452
0.0386047
0.0329856
0.0283858
0.0246341
0.0215859
0.0191196
0.0171333
0.0155418
0.0142744
0.0132725
0.0124878
0.0118804
0.011418
0.0110742
0.0108276
0.0106614
0.0105621
0.0105192
0.0105248
0.0105756
0.0107022
4368.55
-552.157
-353.823
-111.018
-23.1623
4.7564
14.5267
18.97
21.746
23.8999
25.7321
27.3262
28.7032
29.8667
30.8169
31.5546
32.0826
32.4056
32.5305
32.4663
32.2237
31.8148
31.253
30.5526
29.7285
28.7961
27.7707
26.6678
25.5024
24.2891
23.0416
21.7733
20.4962
19.2216
17.9597
16.7196
15.5093
14.3356
13.2044
12.1203
11.0872
10.1078
9.18396
8.31686
7.50683
6.75359
6.05626
5.41351
4.82357
4.28436
3.7935
3.34845
2.94651
2.58489
2.26079
1.97139
1.71393
1.48571
1.28414
1.10673
0.951135
0.815142
0.696688
0.59386
0.504896
0.428183
0.362252
0.305772
0.257545
0.216499
0.181675
0.152225
0.127397
0.106534
0.0890557
0.0744602
0.0623101
0.0522277
0.0438878
0.0370115
0.0313606
0.0267323
0.022955
0.0198834
0.0173956
0.0153892
0.0137789
0.0124935
0.0114741
0.0106723
0.010048
0.00956872
0.00920782
0.00894395
0.00876003
0.00864259
0.00858111
0.00856764
0.00859845
0.00869688
4368.55
-552.16
-353.828
-111.024
-23.1706
4.74655
14.5154
18.9575
21.7324
23.8856
25.7172
27.3109
28.6877
29.8513
30.8018
31.5401
32.0688
32.3926
32.5186
32.4556
32.2142
31.8067
31.2463
30.5473
29.7247
28.7937
27.7697
26.6681
25.504
24.2918
23.0455
21.7781
20.5019
19.228
17.9668
16.7272
15.5173
14.3439
13.2128
12.1289
11.0957
10.1162
9.19224
8.32491
7.51459
6.76101
6.06331
5.42015
4.82978
4.29012
3.79881
3.3533
2.9509
2.58884
2.26431
1.97449
1.71663
1.48803
1.2861
1.10835
0.952446
0.816162
0.697441
0.594368
0.505182
0.428266
0.362152
0.305508
0.257134
0.215956
0.181016
0.151462
0.126544
0.1056
0.0880513
0.0733939
0.0611895
0.0510595
0.0426778
0.0357648
0.0300814
0.0254244
0.0216214
0.0185268
0.0160181
0.0139925
0.0123644
0.0110622
0.0100269
0.00920963
0.00857029
0.00807607
0.00770031
0.00742149
0.00722242
0.00708954
0.00701231
0.00698276
0.00699676
0.00707197
4368.55
-552.163
-353.833
-111.032
-23.1799
4.73554
14.5028
18.9435
21.7173
23.8695
25.7003
27.2936
28.6703
29.8339
30.7847
31.5235
32.053
32.3778
32.5049
32.4431
32.2032
31.7971
31.2383
30.5408
29.7198
28.7903
27.7679
26.6678
25.505
24.2942
23.049
21.7828
20.5075
19.2346
17.974
16.7351
15.5256
14.3526
13.2218
12.1379
11.1048
10.1253
9.20114
8.33359
7.523
6.76908
6.071
5.42743
4.83663
4.2965
3.80473
3.35874
2.95587
2.59335
2.26836
1.97811
1.71983
1.49083
1.28852
1.11042
0.954183
0.817593
0.69859
0.595259
0.505836
0.428707
0.362399
0.305581
0.257052
0.215736
0.180672
0.15101
0.125995
0.104966
0.0873434
0.0726209
0.0603596
0.0501799
0.0417548
0.0348038
0.0290872
0.024401
0.0205721
0.0174545
0.0149252
0.012881
0.0112358
0.00991784
0.00886773
0.0080364
0.0073835
0.00687607
0.00648727
0.00619548
0.00598338
0.00583733
0.00574675
0.00570365
0.00570357
0.0057597
4368.54
-552.167
-353.839
-111.04
-23.1902
4.72326
14.4888
18.9279
21.7003
23.8515
25.6815
27.2743
28.6507
29.8143
30.7655
31.5048
32.035
32.3609
32.4892
32.4288
32.1903
31.7859
31.2287
30.533
29.7136
28.7859
27.7652
26.6667
25.5055
24.2961
23.0523
21.7872
20.5131
19.2411
17.9814
16.7431
15.5342
14.3616
13.2311
12.1475
11.1144
10.1348
9.2106
8.34286
7.532
6.77776
6.0793
5.43531
4.84406
4.30347
3.81121
3.36474
2.96138
2.59837
2.27291
1.9822
1.72348
1.49406
1.29136
1.11289
0.956301
0.819389
0.700089
0.596485
0.506814
0.429459
0.362948
0.305946
0.257252
0.215789
0.180596
0.150818
0.125702
0.104584
0.0868828
0.0720919
0.0597709
0.0495393
0.0410689
0.0340785
0.0283275
0.0236113
0.0197562
0.0166155
0.0140657
0.0120032
0.0103415
0.00900844
0.00794443
0.00710009
0.00643486
0.00591558
0.00551527
0.00521214
0.00498879
0.00483149
0.00472959
0.00467507
0.00466322
0.00470368
4368.54
-552.171
-353.845
-111.049
-23.2018
4.70954
14.4732
18.9106
21.6816
23.8315
25.6606
27.2528
28.6288
29.7925
30.7439
31.4838
32.0148
32.3417
32.4713
32.4124
32.1756
31.7728
31.2174
30.5236
29.7062
28.7803
27.7614
26.6647
25.5052
24.2974
23.0551
21.7914
20.5185
19.2476
17.9888
16.7513
15.543
14.3709
13.2408
12.1574
11.1245
10.1449
9.22059
8.35267
7.54156
6.78699
6.08816
5.44375
4.85204
4.31097
3.81822
3.37124
2.96738
2.60387
2.27791
1.98673
1.72755
1.49769
1.29458
1.11571
0.958764
0.821514
0.701901
0.598011
0.508077
0.430484
0.363758
0.306563
0.257696
0.216078
0.180747
0.150848
0.125624
0.104412
0.086629
0.0717662
0.0593826
0.0490965
0.0405788
0.0335474
0.0277609
0.0230138
0.0191318
0.0159677
0.0133973
0.0113166
0.00963865
0.00829109
0.00721384
0.00635732
0.00568073
0.00515072
0.00474012
0.00442703
0.00419391
0.00402694
0.00391541
0.00385128
0.0038296
0.00385725
4368.54
-552.176
-353.853
-111.06
-23.2151
4.69403
14.4557
18.8914
21.6608
23.8094
25.6375
27.2289
28.6046
29.7682
30.7198
31.4603
31.9922
32.3202
32.4512
32.3938
32.1587
31.7578
31.2044
30.5126
29.6972
28.7734
27.7565
26.6617
25.5041
24.298
23.0573
21.7951
20.5236
19.2539
17.9962
16.7596
15.552
14.3805
13.2508
12.1677
11.135
10.1554
9.23106
8.36299
7.55164
6.79676
6.09755
5.45272
4.86055
4.31899
3.82573
3.37823
2.97384
2.60981
2.28335
1.99167
1.73201
1.5017
1.29815
1.11888
0.961543
0.823938
0.703997
0.599804
0.509596
0.431752
0.364799
0.3074
0.25835
0.216569
0.181094
0.151066
0.12573
0.104419
0.086549
0.0716106
0.0591612
0.048818
0.0402509
0.0331767
0.0273533
0.0225742
0.0186646
0.0154765
0.0128852
0.0107863
0.0090923
0.0077305
0.0066405
0.00577242
0.00508524
0.00454536
0.00412549
0.00380354
0.00356187
0.00338656
0.00326683
0.00319458
0.00316471
0.00318189
4368.54
-552.183
-353.864
-111.074
-23.2315
4.67574
14.4359
18.87
21.6379
23.7851
25.6121
27.2027
28.5779
29.7413
30.6932
31.4343
31.967
32.2962
32.4286
32.3729
32.1397
31.7408
31.1895
30.4999
29.6866
28.765
27.7503
26.6576
25.502
24.2979
23.059
21.7984
20.5284
19.26
18.0034
16.7678
15.5611
14.3903
13.2611
12.1783
11.1458
10.1664
9.24199
8.37378
7.56221
6.80703
6.10746
5.4622
4.86956
4.32751
3.83372
3.38569
2.98076
2.61619
2.2892
1.99699
1.73684
1.50605
1.30204
1.12235
0.964614
0.826636
0.706351
0.601842
0.511344
0.433237
0.366045
0.308432
0.25919
0.217238
0.18161
0.151448
0.125993
0.104577
0.086616
0.0715981
0.0590796
0.0486765
0.0400577
0.0329388
0.0270768
0.0222646
0.0183264
0.0151137
0.0125011
0.0103838
0.00867373
0.00729785
0.0061954
0.00531621
0.004619
0.00406996
0.00364161
0.00331171
0.00306249
0.00287993
0.00275317
0.00267407
0.00263738
0.00264605
4368.53
-552.2
-353.884
-111.096
-23.2549
4.65179
14.4119
18.8456
21.6124
23.7584
25.5842
27.174
28.5486
29.7119
30.664
31.4056
31.9393
32.2697
32.4036
32.3497
32.1184
31.7216
31.1726
30.4853
29.6744
28.7552
27.7428
26.6524
25.499
24.2969
23.06
21.8012
20.5328
19.2658
18.0106
16.7761
15.5703
14.4002
13.2716
12.1893
11.157
10.1777
9.25333
8.38503
7.57325
6.81778
6.11784
5.47216
4.87906
4.33649
3.84217
3.39358
2.9881
2.62298
2.29543
2.00269
1.74202
1.51073
1.30625
1.12611
0.967959
0.829591
0.708945
0.604104
0.513302
0.434919
0.367478
0.309639
0.260195
0.218062
0.182274
0.15197
0.12639
0.104865
0.0868082
0.0717067
0.0591158
0.0486498
0.0399767
0.0328111
0.026909
0.0220623
0.0180945
0.0148563
0.012222
0.0100859
0.00835963
0.00696968
0.00585495
0.00496494
0.00425812
0.00370046
0.00326425
0.00292713
0.00267118
0.00248226
0.00234945
0.00226455
0.00222218
0.00222395
4368.51
-552.253
-353.938
-111.142
-23.296
4.61455
14.3789
18.8154
21.5831
23.7287
25.5538
27.1427
28.5168
29.6799
30.6322
31.3743
31.909
32.2407
32.3761
32.3241
32.0948
31.7003
31.1537
30.4688
29.6605
28.7438
27.7339
26.646
25.4949
24.2951
23.0602
21.8034
20.5367
19.2714
18.0175
16.7842
15.5795
14.4102
13.2823
12.2004
11.1685
10.1894
9.26508
8.3967
7.58473
6.82899
6.1287
5.4826
4.88901
4.34593
3.85106
3.40191
2.99586
2.63016
2.30204
2.00875
1.74753
1.51573
1.31076
1.13015
0.971561
0.832787
0.711763
0.606575
0.515455
0.436783
0.369079
0.311004
0.261348
0.219026
0.18307
0.152617
0.126906
0.105266
0.0871082
0.071919
0.0592519
0.0487201
0.0399902
0.0327758
0.0268316
0.021949
0.0179505
0.0146861
0.0120293
0.00987391
0.00813119
0.00672707
0.0056001
0.00469945
0.00398331
0.00341741
0.00297384
0.00263007
0.00236805
0.00217351
0.00203546
0.00194563
0.00189854
0.00189475
4368.4
-552.461
-354.115
-111.262
-23.3831
4.54598
14.3249
18.7719
21.5454
23.6935
25.5192
27.1082
28.4821
29.6452
30.5978
31.3406
31.8762
32.2092
32.3464
32.2962
32.0692
31.677
31.1329
30.4506
29.645
28.7309
27.7237
26.6384
25.4898
24.2923
23.0597
21.805
20.5402
19.2766
18.0243
16.7923
15.5887
14.4203
13.2931
12.2119
11.1803
10.2015
9.27719
8.40877
7.59664
6.84064
6.14
5.49347
4.89941
4.35581
3.86038
3.41066
3.00401
2.63772
2.30902
2.01515
1.75337
1.52103
1.31555
1.13445
0.97541
0.83621
0.714793
0.609242
0.51779
0.438815
0.370837
0.312514
0.262636
0.220116
0.183983
0.153375
0.127526
0.105765
0.0875019
0.0722209
0.059474
0.0488732
0.0400838
0.0328183
0.0268303
0.0219102
0.0178797
0.0145881
0.0119081
0.00973295
0.00797339
0.00655491
0.00541563
0.00450442
0.00377913
0.00320527
0.00275472
0.00240475
0.00213718
0.00193764
0.00179501
0.00170098
0.00164997
0.00164173
4367.91
-553.339
-354.777
-111.63
-23.5898
4.40966
14.2267
18.6981
21.4866
23.643
25.4732
27.0645
28.4398
29.604
30.5575
31.3015
31.8385
32.1732
32.3123
32.2644
32.0398
31.6504
31.109
30.4296
29.6269
28.7158
27.7115
26.629
25.4831
24.2883
23.0581
21.8056
20.5429
19.2812
18.0305
16.8
15.5976
14.4303
13.304
12.2233
11.1923
10.2137
9.28958
8.42115
7.60889
6.85265
6.15168
5.50475
4.91021
4.36608
3.87009
3.41978
3.01253
2.64563
2.31633
2.02186
1.75951
1.52662
1.3206
1.13901
0.97949
0.839849
0.718022
0.612093
0.520295
0.441003
0.372739
0.314158
0.264048
0.221321
0.185004
0.154232
0.128239
0.106352
0.0879783
0.0726011
0.0597707
0.0490978
0.0402462
0.0329272
0.0268936
0.0219344
0.0178707
0.0145507
0.0118467
0.0096512
0.00787439
0.00644126
0.00528955
0.00436774
0.00363341
0.00305178
0.00259452
0.00223871
0.00196602
0.00176195
0.00161531
0.00151769
0.00146344
0.00145168
4365.81
-556.932
-357.304
-112.842
-24.1223
4.139
14.0528
18.5661
21.3766
23.5462
25.3847
26.982
28.3618
29.5296
30.4865
31.2337
31.7741
32.1125
32.2555
32.2118
31.9916
31.6067
31.0699
30.3952
29.5971
28.6904
27.6903
26.6119
25.4699
24.2786
23.0518
21.8023
20.5424
19.2831
18.0345
16.8059
15.6051
14.4392
13.3139
12.2342
11.2038
10.2256
9.30177
8.43345
7.62115
6.86475
6.1635
5.5162
4.92122
4.37659
3.88006
3.42917
3.02132
2.65382
2.32391
2.02884
1.76591
1.53244
1.32589
1.14377
0.983771
0.843675
0.721425
0.615107
0.52295
0.443332
0.37477
0.315921
0.26557
0.222628
0.186119
0.155177
0.129035
0.107016
0.0885274
0.0730499
0.0601326
0.0493844
0.0404681
0.0330934
0.0270122
0.0220124
0.0179141
0.0145648
0.0118359
0.00961948
0.00782494
0.00637685
0.00521252
0.00428006
0.00353671
0.00294743
0.00248366
0.0021223
0.00184484
0.00163666
0.00148646
0.00138579
0.00132887
0.00131437
4359.36
-569.532
-366.201
-116.8
-25.5582
3.61609
13.7946
18.3648
21.1762
23.3359
25.1662
26.7589
28.138
29.3081
30.2698
31.0243
31.574
31.9234
32.079
32.0489
31.8431
31.4729
30.9507
30.2903
29.5058
28.6121
27.624
26.5565
25.4245
24.2421
23.0232
21.7807
20.5268
19.2727
18.0287
16.8039
15.6063
14.443
13.3199
12.2418
11.2128
10.2356
9.31249
8.44464
7.63259
6.87624
6.1749
5.52738
4.93208
4.38704
3.89003
3.43861
3.03021
2.66212
2.33162
2.03597
1.77246
1.53843
1.33133
1.1487
0.988205
0.847649
0.72497
0.618253
0.52573
0.445777
0.376911
0.317787
0.267188
0.224024
0.187317
0.1562
0.129903
0.107748
0.0891402
0.0735588
0.0605513
0.0497252
0.0407417
0.0333094
0.0271788
0.022137
0.0180029
0.0146233
0.0118688
0.00963076
0.00781803
0.00635467
0.00517752
0.0042343
0.00348194
0.0028851
0.00241499
0.0020483
0.00176636
0.00155443
0.00140108
0.00129779
0.00123873
0.00122218
4381.06
-592.723
-389.157
-127.153
-28.8507
2.78158
13.5926
18.2435
20.9904
23.0542
24.7917
26.3074
27.6298
28.7641
29.7092
30.4636
31.0267
31.4003
31.5879
31.5954
31.4307
31.1031
30.6239
30.0053
29.2606
28.404
27.4499
26.4131
25.3082
24.1496
22.9511
21.7261
20.4869
19.2451
18.0111
16.7944
15.6033
14.4451
13.3259
12.2508
11.2239
10.2483
9.32616
8.45887
7.64705
6.89066
6.18907
5.54113
4.94529
4.39962
3.90192
3.44978
3.04063
2.67179
2.34055
2.04416
1.77994
1.54523
1.33748
1.15424
0.993181
0.852093
0.728923
0.621755
0.52882
0.448491
0.379286
0.319856
0.268983
0.225575
0.188651
0.157342
0.130877
0.108574
0.0898367
0.0741431
0.0610384
0.0501283
0.0410727
0.0335786
0.0273952
0.0223085
0.0181364
0.0147246
0.0119431
0.00968223
0.00785041
0.00637109
0.00518062
0.00422633
0.00346476
0.00286029
0.00238386
0.00201196
0.00172574
0.00151031
0.00135414
0.00124863
0.00118788
0.00117
5167.47
-432.406
-378.906
-131.873
-31.2577
2.12907
13.6285
18.6028
21.5938
23.8827
25.8235
27.5104
28.9659
30.1941
31.1958
31.973
32.5298
32.8726
33.0099
32.9519
32.7108
32.2998
31.7331
31.026
30.1939
29.2526
28.2178
27.1053
25.93
24.7067
23.4492
22.1706
20.8832
19.5979
18.3251
17.0736
15.8516
14.6658
13.522
12.425
11.3786
10.3855
9.44788
8.56675
7.74259
6.97519
6.26378
5.6071
5.00346
4.45085
3.94697
3.48934
3.07531
2.70215
2.36707
2.0673
1.80008
1.56274
1.35267
1.16739
1.00453
0.861881
0.737343
0.628983
0.53501
0.453781
0.383795
0.323691
0.272237
0.228328
0.190976
0.159299
0.13252
0.10995
0.0909851
0.0750988
0.0618311
0.0507836
0.0416123
0.0340211
0.0277565
0.022602
0.0183734
0.0149147
0.0120943
0.0098013
0.007943
0.00644192
0.00523361
0.00426472
0.00349125
0.00287712
0.00239289
0.00201471
0.00172348
0.0015041
0.00134489
0.00123713
0.00117494
0.00115678
)
;

boundaryField
{
    xmin
    {
        type            calculated;
        value           uniform 0;
    }
    xmax
    {
        type            calculated;
        value           nonuniform List<scalar> 
100
(
4521.54
-378.355
-331.543
-115.389
-27.3504
1.86296
11.925
16.2775
18.8946
20.8974
22.5956
24.0717
25.3452
26.4199
27.2964
27.9764
28.4637
28.7636
28.8837
28.833
28.622
28.2624
27.7666
27.1478
26.4197
25.5961
24.6907
23.7172
22.6889
21.6185
20.5182
19.3994
18.2729
17.1483
16.0345
14.9395
13.8702
12.8326
11.8318
10.872
9.95635
9.08746
8.267
7.49601
6.77487
6.1034
5.48092
4.90632
4.37814
3.8946
3.45371
3.05328
2.69101
2.36449
2.07129
1.80899
1.57518
1.3675
1.18369
1.02157
0.879077
0.754256
0.645285
0.55047
0.468243
0.397168
0.335931
0.28334
0.238318
0.199898
0.167215
0.139499
0.116067
0.0963183
0.0797249
0.0658248
0.054216
0.04455
0.0365257
0.0298841
0.0244033
0.0198938
0.0161946
0.0131691
0.0107022
0.00869688
0.00707197
0.0057597
0.00470368
0.00385725
0.00318189
0.00264605
0.00222395
0.00189475
0.00164173
0.00145168
0.00131437
0.00122218
0.00117
0.00115678
)
;
    }
    ymin
    {
        type            calculated;
        value           uniform 0;
    }
    ymax
    {
        type            calculated;
        value           nonuniform List<scalar> 
100
(
5167.47
-432.406
-378.906
-131.873
-31.2577
2.12907
13.6285
18.6028
21.5938
23.8827
25.8235
27.5104
28.9659
30.1941
31.1958
31.973
32.5298
32.8726
33.0099
32.9519
32.7108
32.2998
31.7331
31.026
30.1939
29.2526
28.2178
27.1053
25.93
24.7067
23.4492
22.1706
20.8832
19.5979
18.3251
17.0736
15.8516
14.6658
13.522
12.425
11.3786
10.3855
9.44788
8.56675
7.74259
6.97519
6.26378
5.6071
5.00346
4.45085
3.94697
3.48934
3.07531
2.70215
2.36707
2.0673
1.80008
1.56274
1.35267
1.16739
1.00453
0.861881
0.737343
0.628983
0.53501
0.453781
0.383795
0.323691
0.272237
0.228328
0.190976
0.159299
0.13252
0.10995
0.0909851
0.0750988
0.0618311
0.0507836
0.0416123
0.0340211
0.0277565
0.022602
0.0183734
0.0149147
0.0120943
0.0098013
0.007943
0.00644192
0.00523361
0.00426472
0.00349125
0.00287712
0.00239289
0.00201471
0.00172348
0.0015041
0.00134489
0.00123713
0.00117494
0.00115678
)
;
    }
    frontAndBack
    {
        type            empty;
    }
}


// ************************************************************************* //
