/*--------------------------------*- C++ -*----------------------------------*\
  =========                 |
  \\      /  F ield         | OpenFOAM: The Open Source CFD Toolbox
   \\    /   O peration     | Website:  https://openfoam.org
    \\  /    A nd           | Version:  10
     \\/     M anipulation  |
\*---------------------------------------------------------------------------*/
FoamFile
{
    format      ascii;
    class       volScalarField;
    location    "5";
    object      ddt0(T);
}
// * * * * * * * * * * * * * * * * * * * * * * * * * * * * * * * * * * * * * //

dimensions      [0 0 -1 1 0 0 0];

internalField   nonuniform List<scalar> 
10000
(
6311.77
3013.31
3003.14
3054.27
3068.05
3071.27
3072.14
3072.42
3072.54
3072.6
3072.64
3072.68
3072.71
3072.74
3072.77
3072.8
3072.83
3072.85
3072.87
3072.89
3072.91
3072.93
3072.94
3072.95
3072.97
3072.98
3072.98
3072.99
3073
3073
3073
3073
3073.01
3073.01
3073
3073
3073
3073
3072.99
3072.99
3072.98
3072.98
3072.97
3072.97
3072.96
3072.95
3072.95
3072.94
3072.93
3072.93
3072.92
3072.92
3072.91
3072.9
3072.9
3072.89
3072.89
3072.88
3072.88
3072.87
3072.87
3072.87
3072.86
3072.86
3072.85
3072.85
3072.85
3072.85
3072.84
3072.84
3072.84
3072.84
3072.84
3072.83
3072.83
3072.83
3072.83
3072.83
3072.83
3072.83
3072.82
3072.82
3072.82
3072.82
3072.82
3072.82
3072.82
3072.82
3072.82
3072.82
3072.82
3072.82
3072.81
3072.8
3072.75
3072.46
3070.9
3064.09
3060.01
3550.57
3490.69
-773.082
-644.68
-517.264
-483.156
-475.2
-473.128
-472.458
-472.175
-472.013
-471.891
-471.785
-471.687
-471.594
-471.507
-471.425
-471.349
-471.277
-471.212
-471.151
-471.097
-471.047
-471.003
-470.964
-470.93
-470.9
-470.875
-470.855
-470.838
-470.826
-470.817
-470.811
-470.809
-470.81
-470.813
-470.819
-470.827
-470.837
-470.849
-470.863
-470.878
-470.894
-470.91
-470.928
-470.946
-470.965
-470.984
-471.003
-471.021
-471.04
-471.059
-471.077
-471.095
-471.112
-471.129
-471.145
-471.16
-471.175
-471.189
-471.203
-471.215
-471.227
-471.239
-471.249
-471.259
-471.269
-471.277
-471.286
-471.293
-471.3
-471.307
-471.312
-471.318
-471.323
-471.328
-471.332
-471.336
-471.34
-471.343
-471.347
-471.35
-471.352
-471.355
-471.358
-471.36
-471.362
-471.365
-471.367
-471.369
-471.371
-471.373
-471.376
-471.382
-471.401
-471.487
-471.916
-474.07
-483.555
-509.477
-416.158
3458.12
-683.499
-448.933
-282.424
-237.171
-226.249
-223.338
-222.38
-221.961
-221.709
-221.513
-221.338
-221.176
-221.022
-220.877
-220.74
-220.612
-220.493
-220.384
-220.283
-220.191
-220.108
-220.034
-219.968
-219.911
-219.861
-219.82
-219.785
-219.757
-219.736
-219.721
-219.712
-219.708
-219.709
-219.714
-219.724
-219.737
-219.754
-219.773
-219.796
-219.82
-219.847
-219.875
-219.904
-219.934
-219.965
-219.996
-220.028
-220.059
-220.091
-220.121
-220.152
-220.181
-220.21
-220.238
-220.265
-220.29
-220.315
-220.339
-220.361
-220.382
-220.402
-220.421
-220.439
-220.455
-220.471
-220.485
-220.499
-220.511
-220.523
-220.534
-220.544
-220.553
-220.562
-220.569
-220.577
-220.583
-220.59
-220.595
-220.601
-220.606
-220.61
-220.615
-220.619
-220.623
-220.627
-220.63
-220.634
-220.637
-220.64
-220.644
-220.648
-220.656
-220.673
-220.73
-220.974
-222.163
-227.633
-245.448
-231.675
3496.81
-577.716
-305.967
-125.487
-75.7736
-63.4757
-60.1032
-58.9528
-58.4256
-58.0917
-57.8236
-57.5826
-57.3571
-57.1437
-56.942
-56.7521
-56.5743
-56.4088
-56.2558
-56.1154
-55.9875
-55.872
-55.7686
-55.6771
-55.597
-55.5279
-55.4694
-55.4211
-55.3824
-55.3527
-55.3317
-55.3187
-55.3132
-55.3146
-55.3223
-55.3359
-55.3547
-55.3782
-55.4059
-55.4372
-55.4716
-55.5087
-55.548
-55.589
-55.6313
-55.6746
-55.7184
-55.7625
-55.8066
-55.8503
-55.8934
-55.9357
-55.9771
-56.0173
-56.0562
-56.0938
-56.1298
-56.1644
-56.1973
-56.2286
-56.2583
-56.2863
-56.3127
-56.3375
-56.3607
-56.3825
-56.4027
-56.4216
-56.4391
-56.4554
-56.4704
-56.4843
-56.4972
-56.5091
-56.52
-56.5302
-56.5395
-56.5482
-56.5562
-56.5637
-56.5707
-56.5772
-56.5833
-56.5891
-56.5946
-56.5999
-56.605
-56.6099
-56.6147
-56.6195
-56.6245
-56.6305
-56.6397
-56.6575
-56.6976
-56.8038
-57.1921
-58.9386
-64.9682
-61.879
3507.74
-549.088
-267.049
-82.2613
-30.9566
-18.0705
-14.4524
-13.1719
-12.5545
-12.1451
-11.8082
-11.5022
-11.2148
-10.9426
-10.6852
-10.4427
-10.2155
-10.004
-9.80849
-9.62897
-9.4654
-9.31759
-9.18527
-9.06805
-8.96549
-8.87707
-8.80223
-8.74038
-8.69088
-8.65307
-8.62628
-8.6098
-8.60292
-8.60493
-8.61511
-8.63273
-8.65708
-8.68745
-8.72317
-8.76354
-8.80793
-8.8557
-8.90627
-8.95905
-9.01352
-9.06919
-9.12558
-9.18227
-9.23888
-9.29506
-9.35049
-9.40489
-9.45804
-9.5097
-9.55973
-9.60796
-9.65429
-9.69864
-9.74093
-9.78113
-9.81922
-9.85521
-9.88912
-9.92097
-9.95081
-9.97871
-10.0047
-10.0289
-10.0514
-10.0723
-10.0916
-10.1094
-10.1259
-10.1411
-10.1552
-10.1682
-10.1802
-10.1913
-10.2016
-10.2111
-10.2201
-10.2284
-10.2363
-10.2437
-10.2507
-10.2575
-10.264
-10.2702
-10.2764
-10.2825
-10.2888
-10.2961
-10.3065
-10.3251
-10.3629
-10.4368
-10.5837
-10.9874
-12.0754
-10.6224
3510.36
-542.37
-257.643
-71.5559
-19.6769
-6.52514
-2.76274
-1.38459
-0.687859
-0.207303
0.196457
0.566116
0.914303
1.24432
1.55662
1.85085
2.12651
2.38316
2.62052
2.83849
3.03712
3.21662
3.37733
3.51969
3.64422
3.75155
3.84234
3.91732
3.97725
4.02293
4.0552
4.07489
4.08289
4.08005
4.06728
4.04544
4.0154
3.97803
3.93418
3.88465
3.83025
3.77174
3.70985
3.64527
3.57864
3.51058
3.44164
3.37235
3.30318
3.23456
3.16685
3.10041
3.03552
2.97243
2.91136
2.85248
2.79592
2.7418
2.69019
2.64113
2.59465
2.55074
2.50937
2.47052
2.43411
2.40008
2.36835
2.33883
2.31141
2.28599
2.26245
2.2407
2.2206
2.20204
2.18492
2.16911
2.1545
2.14099
2.12847
2.11683
2.10598
2.09584
2.0863
2.07728
2.06872
2.06054
2.05268
2.04506
2.03762
2.03027
2.02283
2.01473
2.00438
1.98737
1.95409
1.89031
1.78899
1.67309
1.7213
2.54645
3511.08
-540.6
-255.116
-68.5966
-16.48
-3.18541
0.677361
2.13717
2.90688
3.45574
3.92457
4.3565
4.76419
5.15087
5.51687
5.86173
6.18483
6.48567
6.76391
7.01942
7.25227
7.46268
7.65103
7.81784
7.96372
8.08937
8.19557
8.28318
8.35309
8.40624
8.4436
8.46618
8.47499
8.47108
8.45547
8.4292
8.39331
8.3488
8.29668
8.2379
8.17341
8.1041
8.03083
7.95441
7.87561
7.79515
7.71368
7.63181
7.5501
7.46905
7.38911
7.31067
7.23407
7.15961
7.08754
7.01806
6.95134
6.88749
6.82661
6.76874
6.71392
6.66213
6.61335
6.56754
6.52462
6.4845
6.4471
6.4123
6.37999
6.35003
6.32231
6.29668
6.27301
6.25116
6.23101
6.2124
6.19522
6.17933
6.16461
6.15094
6.1382
6.12629
6.11509
6.10452
6.09449
6.08491
6.07569
6.06678
6.05809
6.04956
6.04104
6.03226
6.02228
6.00832
5.98338
5.93452
5.85085
5.76194
5.87566
6.41338
3511.33
-540.012
-254.265
-67.5634
-15.32
-1.92851
2.01582
3.54927
4.38812
5.00298
5.53514
6.02781
6.49359
6.93557
7.35396
7.74816
8.11748
8.46133
8.77934
9.07135
9.33742
9.57781
9.79295
9.9834
10.1499
10.2931
10.4141
10.5138
10.5932
10.6533
10.6953
10.7204
10.7297
10.7244
10.7057
10.6747
10.6328
10.581
10.5204
10.4523
10.3776
10.2974
10.2127
10.1244
10.0334
9.94057
9.84657
9.75214
9.65792
9.56448
9.47234
9.38194
9.29369
9.20791
9.1249
9.04488
8.96805
8.89453
8.82444
8.75783
8.69472
8.63512
8.57899
8.52627
8.47688
8.43073
8.38771
8.34768
8.31052
8.27608
8.2442
8.21474
8.18754
8.16245
8.1393
8.11794
8.09822
8.07999
8.06311
8.04744
8.03285
8.01921
8.0064
7.99432
7.98286
7.97191
7.9614
7.95123
7.94134
7.93164
7.92204
7.91241
7.90233
7.89042
7.87246
7.83829
7.77147
7.67142
7.67878
8.16411
3511.43
-539.753
-253.878
-67.0703
-14.7376
-1.26707
2.75033
4.353
5.25824
5.93704
6.53075
7.08251
7.60478
8.10051
8.56979
9.0119
9.42606
9.81161
10.1681
10.4954
10.7936
11.063
11.3039
11.5171
11.7033
11.8634
11.9985
12.1095
12.1977
12.2643
12.3105
12.3377
12.347
12.34
12.3178
12.282
12.2338
12.1744
12.1053
12.0277
11.9427
11.8516
11.7554
11.6552
11.552
11.4467
11.3402
11.2332
11.1265
11.0207
10.9164
10.8141
10.7143
10.6173
10.5234
10.4329
10.346
10.2629
10.1837
10.1084
10.0371
9.9697
9.90627
9.84671
9.79092
9.7388
9.69021
9.64501
9.60305
9.56417
9.5282
9.49495
9.46427
9.43597
9.40986
9.38579
9.36358
9.34305
9.32406
9.30643
9.29004
9.27472
9.26035
9.2468
9.23395
9.22169
9.20993
9.19856
9.18751
9.17668
9.16602
9.15542
9.14473
9.1334
9.11924
9.09503
9.04201
8.93141
8.83508
9.39827
3511.49
-539.597
-253.634
-66.7452
-14.337
-0.794983
3.291
4.9599
5.92919
6.6699
7.32327
7.93229
8.50929
9.05708
9.57559
10.064
10.5215
10.9473
11.3409
11.7022
12.0313
12.3284
12.5941
12.829
13.034
13.2101
13.3585
13.4802
13.5766
13.649
13.6988
13.7275
13.7365
13.7274
13.7015
13.6604
13.6057
13.5386
13.4608
13.3735
13.2781
13.1759
13.0682
12.956
12.8406
12.7229
12.6039
12.4844
12.3653
12.2472
12.1308
12.0167
11.9053
11.7971
11.6924
11.5915
11.4946
11.402
11.3137
11.2298
11.1504
11.0753
11.0047
10.9384
10.8762
10.8182
10.7641
10.7138
10.6671
10.6238
10.5838
10.5468
10.5127
10.4813
10.4523
10.4255
10.4009
10.3781
10.357
10.3375
10.3193
10.3024
10.2865
10.2715
10.2574
10.2438
10.2309
10.2184
10.2062
10.1943
10.1826
10.1711
10.1595
10.1479
10.1352
10.1164
10.073
9.95565
9.77241
10.4649
3511.53
-539.476
-253.438
-66.4777
-14.0001
-0.390723
3.76079
5.4934
6.52452
7.32502
8.03602
8.70035
9.33016
9.92813
10.4941
11.0271
11.5262
11.9907
12.4199
12.8138
13.1724
13.496
13.7852
14.0408
14.2636
14.4548
14.6155
14.7471
14.851
14.9286
14.9815
15.0112
15.0194
15.0077
14.9777
14.9311
14.8695
14.7945
14.7077
14.6106
14.5047
14.3914
14.2721
14.148
14.0203
13.8902
13.7587
13.6267
13.4952
13.3648
13.2364
13.1105
12.9877
12.8684
12.753
12.6418
12.535
12.433
12.3357
12.2433
12.1558
12.0732
11.9954
11.9223
11.854
11.7901
11.7306
11.6752
11.6238
11.5763
11.5322
11.4916
11.4541
11.4195
11.3877
11.3584
11.3313
11.3063
11.2832
11.2619
11.242
11.2235
11.2061
11.1898
11.1744
11.1596
11.1455
11.132
11.1188
11.1059
11.0932
11.0807
11.0683
11.056
11.0434
11.0273
10.9902
10.8693
10.6136
11.4419
3511.57
-539.369
-253.262
-66.2343
-13.6909
-0.0171245
4.19729
5.9912
7.08183
7.9399
8.70635
9.42385
10.1044
10.7506
11.362
11.9378
12.4767
12.9781
13.4414
13.8663
14.253
14.6018
14.9133
15.1883
15.4278
15.633
15.8053
15.9459
16.0565
16.1386
16.1939
16.2241
16.231
16.2163
16.1818
16.1293
16.0606
15.9775
15.8815
15.7745
15.6579
15.5334
15.4024
15.2662
15.1263
14.9838
14.8398
14.6954
14.5515
14.409
14.2686
14.131
13.9968
13.8665
13.7405
13.619
13.5025
13.3911
13.285
13.1841
13.0887
12.9985
12.9137
12.8341
12.7595
12.6899
12.625
12.5646
12.5087
12.4568
12.4089
12.3647
12.3239
12.2863
12.2516
12.2197
12.1903
12.1632
12.1382
12.115
12.0935
12.0734
12.0547
12.0371
12.0204
12.0045
11.9894
11.9748
11.9606
11.9468
11.9332
11.9198
11.9066
11.8935
11.8806
11.8657
11.8328
11.7105
11.397
12.346
3511.6
-539.269
-253.097
-66.005
-13.3987
0.336747
4.61149
6.4642
7.61192
8.52519
9.34478
10.1132
10.8423
11.5345
12.1894
12.8059
13.3828
13.9194
14.4149
14.8693
15.2825
15.655
15.9875
16.2807
16.5358
16.754
16.9367
17.0855
17.202
17.2878
17.3449
17.375
17.38
17.3618
17.3225
17.2638
17.1877
17.0961
16.9908
16.8736
16.7463
16.6104
16.4677
16.3195
16.1672
16.0123
15.8559
15.6991
15.5429
15.3883
15.236
15.0869
14.9414
14.8001
14.6636
14.5321
14.4059
14.2852
14.1703
14.0611
13.9578
13.8603
13.7685
13.6823
13.6017
13.5263
13.4562
13.391
13.3305
13.2744
13.2227
13.1749
13.1308
13.0902
13.0529
13.0185
12.9868
12.9576
12.9307
12.9057
12.8826
12.8611
12.8411
12.8222
12.8044
12.7875
12.7713
12.7558
12.7407
12.726
12.7116
12.6975
12.6834
12.6696
12.6562
12.6417
12.6115
12.4897
12.1336
13.1793
3511.64
-539.174
-252.94
-65.787
-13.1207
0.673692
5.00611
6.91501
8.11727
9.08324
9.95352
10.7705
11.5458
12.2818
12.978
13.6331
14.246
14.8158
15.3419
15.824
16.2622
16.6569
17.0089
17.319
17.5885
17.8185
18.0107
18.1667
18.2882
18.377
18.4352
18.4645
18.4671
18.4451
18.4004
18.3351
18.2513
18.151
18.0362
17.9087
17.7704
17.6232
17.4686
17.3083
17.1438
16.9765
16.8076
16.6385
16.4701
16.3035
16.1394
15.9787
15.8221
15.67
15.523
15.3815
15.2458
15.116
14.9924
14.875
14.7639
14.6591
14.5604
14.4679
14.3812
14.3003
14.225
14.1549
14.09
14.0299
13.9743
13.9231
13.8758
13.8323
13.7923
13.7555
13.7216
13.6904
13.6616
13.635
13.6103
13.5874
13.5661
13.5461
13.5272
13.5093
13.4922
13.4758
13.4599
13.4445
13.4293
13.4144
13.3997
13.3852
13.3712
13.3567
13.3285
13.2083
12.8246
13.9407
3511.67
-539.085
-252.791
-65.5799
-12.8565
0.994043
5.38136
7.34373
8.59785
9.61389
10.5323
11.3953
12.2144
12.9919
13.7271
14.4187
15.0655
15.6666
16.2213
16.7293
17.1908
17.6062
17.9763
18.302
18.5845
18.8253
19.0259
19.1881
19.3138
19.4048
19.4632
19.4912
19.4909
19.4644
19.4139
19.3417
19.2499
19.1406
19.016
18.878
18.7287
18.57
18.4035
18.2311
18.0543
17.8747
17.6935
17.512
17.3315
17.1529
16.9772
16.8051
16.6374
16.4746
16.3173
16.166
16.0208
15.882
15.7498
15.6244
15.5056
15.3936
15.2882
15.1893
15.0967
15.0103
14.9299
14.8552
14.7859
14.7217
14.6625
14.6078
14.5575
14.5111
14.4685
14.4293
14.3933
14.3601
14.3295
14.3013
14.2752
14.251
14.2284
14.2073
14.1874
14.1686
14.1506
14.1334
14.1168
14.1007
14.0849
14.0694
14.054
14.039
14.0244
14.0098
13.9828
13.8653
13.4677
14.6286
3511.69
-539
-252.65
-65.384
-12.6063
1.29743
5.73676
7.74976
9.05295
10.1163
11.0802
11.9866
12.847
13.6635
14.4354
15.1613
15.8399
16.4702
17.0516
17.5838
18.0669
18.5013
18.888
19.2278
19.5222
19.7725
19.9804
20.1479
20.2767
20.3691
20.4272
20.4531
20.4492
20.4178
20.3611
20.2816
20.1814
20.0629
19.9283
19.7798
19.6193
19.4489
19.2706
19.086
18.897
18.7049
18.5115
18.3178
18.1252
17.9347
17.7474
17.5641
17.3854
17.2121
17.0446
16.8835
16.729
16.5813
16.4408
16.3073
16.1811
16.062
15.9499
15.8448
15.7465
15.6547
15.5692
15.4899
15.4163
15.3482
15.2853
15.2274
15.174
15.1249
15.0797
15.0382
15.0001
14.9651
14.9328
14.903
14.8755
14.85
14.8263
14.8041
14.7833
14.7636
14.7449
14.727
14.7098
14.693
14.6767
14.6606
14.6448
14.6292
14.6142
14.5993
14.5733
14.4593
14.0595
15.2422
3511.72
-538.92
-252.517
-65.1993
-12.3706
1.58335
6.07172
8.13242
9.4818
10.5897
11.5963
12.5435
13.4426
14.2957
15.1018
15.8597
16.5679
17.2254
17.8314
18.3859
18.8888
19.3407
19.7424
20.095
20.3998
20.6585
20.8726
21.0443
21.1755
21.2684
21.3253
21.3485
21.3405
21.3036
21.2403
21.1531
21.0443
20.9163
20.7715
20.6121
20.4404
20.2583
20.068
19.8713
19.67
19.4657
19.2599
19.0541
18.8495
18.6473
18.4485
18.254
18.0646
17.8808
17.7033
17.5326
17.3689
17.2125
17.0636
16.9223
16.7887
16.6626
16.5441
16.4329
16.3289
16.2318
16.1415
16.0575
15.9798
15.9079
15.8415
15.7803
15.7239
15.6721
15.6245
15.5808
15.5407
15.5038
15.4698
15.4386
15.4098
15.3831
15.3583
15.3351
15.3134
15.293
15.2736
15.255
15.2372
15.22
15.2031
15.1866
15.1704
15.1544
15.139
15.124
15.0987
14.989
14.5967
15.781
3511.75
-538.846
-252.393
-65.0263
-12.1496
1.85138
6.38572
8.49112
9.88375
11.0333
12.0798
13.0651
14.0003
14.8874
15.7254
16.5129
17.2484
17.931
18.5598
19.1346
19.6556
20.1233
20.5385
20.9023
21.2163
21.482
21.7013
21.8761
22.0087
22.1013
22.1563
22.1762
22.1634
22.1206
22.0502
21.9548
21.8371
21.6994
21.5441
21.3738
21.1907
20.9969
20.7946
20.5857
20.3721
20.1556
19.9377
19.7198
19.5034
19.2895
19.0794
18.8738
18.6737
18.4797
18.2923
18.1121
17.9393
17.7744
17.6173
17.4684
17.3275
17.1946
17.0696
16.9524
16.8429
16.7406
16.6455
16.5572
16.4753
16.3996
16.3298
16.2654
16.2062
16.1518
16.1018
16.056
16.0139
15.9752
15.9397
15.9071
15.8769
15.8491
15.8233
15.7993
15.7768
15.7556
15.7356
15.7165
15.6982
15.6805
15.6633
15.6464
15.6299
15.6136
15.598
15.5827
15.558
15.4534
15.0763
16.2451
3511.77
-538.776
-252.277
-64.8651
-11.9437
2.10123
6.67844
8.82548
10.2584
11.4467
12.5303
13.5509
14.5195
15.438
16.3055
17.1202
17.8809
18.5863
19.2358
19.8291
20.3664
20.8482
21.2753
21.649
21.9708
22.2423
22.4655
22.6425
22.7756
22.867
22.9194
22.9352
22.9172
22.8678
22.79
22.6862
22.5591
22.4114
22.2456
22.0642
21.8695
21.664
21.4496
21.2286
21.0028
20.7741
20.544
20.3142
20.086
19.8607
19.6393
19.4229
19.2122
19.008
18.8109
18.6214
18.4398
18.2664
18.1013
17.9448
17.7968
17.6572
17.526
17.403
17.288
17.1807
17.0809
16.9882
16.9024
16.823
16.7498
16.6824
16.6204
16.5634
16.5112
16.4632
16.4192
16.3789
16.3419
16.3079
16.2766
16.2477
16.2209
16.196
16.1728
16.151
16.1304
16.1108
16.0921
16.0741
16.0566
16.0395
16.0227
16.0063
15.9904
15.975
15.951
15.8521
15.4959
16.6354
3511.79
-538.712
-252.17
-64.7158
-11.7529
2.33277
6.94971
9.13532
10.6055
11.8296
12.9475
14.0006
15
15.9474
16.8417
17.6814
18.4649
19.1911
19.8593
20.4692
21.0209
21.5151
21.9526
22.3347
22.663
22.9391
23.1651
23.3433
23.4758
23.5653
23.6143
23.6254
23.6015
23.5452
23.4594
23.3468
23.2101
23.0522
22.8756
22.683
22.4767
22.2593
22.0329
21.7998
21.5618
21.321
21.0789
20.8372
20.5974
20.3607
20.1283
19.9011
19.6801
19.4659
19.2592
19.0605
18.8702
18.6885
18.5156
18.3517
18.1967
18.0506
17.9132
17.7845
17.6642
17.5519
17.4475
17.3507
17.261
17.1781
17.1016
17.0312
16.9665
16.907
16.8525
16.8026
16.7568
16.7148
16.6764
16.6411
16.6086
16.5787
16.5511
16.5255
16.5016
16.4792
16.4581
16.4381
16.4191
16.4008
16.383
16.3658
16.3489
16.3324
16.3164
16.3009
16.2776
16.1849
15.8536
16.953
3511.81
-538.653
-252.071
-64.5784
-11.5772
2.54602
7.19955
9.42065
10.9251
12.1821
13.3313
14.4142
15.4417
16.4154
17.3342
18.1965
19.0006
19.7455
20.4303
21.0548
21.6193
22.1242
22.5705
22.9596
23.2929
23.5725
23.8002
23.9785
24.1097
24.1963
24.2412
24.247
24.2166
24.1529
24.0587
23.9369
23.7905
23.6221
23.4346
23.2305
23.0126
22.7833
22.5449
22.2996
22.0496
21.7967
21.5427
21.2893
21.038
20.7901
20.5467
20.309
20.0777
19.8537
19.6377
19.43
19.2311
19.0413
18.8607
18.6895
18.5277
18.3752
18.2319
18.0975
17.972
17.855
17.7461
17.6451
17.5517
17.4653
17.3857
17.3124
17.245
17.1832
17.1266
17.0747
17.0271
16.9836
16.9438
16.9073
16.8737
16.8429
16.8144
16.7881
16.7636
16.7407
16.7192
16.6989
16.6796
16.6611
16.6432
16.6259
16.6089
16.5924
16.5764
16.5609
16.5384
16.4522
16.1485
17.1995
3511.83
-538.599
-251.981
-64.4527
-11.4164
2.74114
7.42814
9.68167
11.2173
12.5043
13.6821
14.792
15.845
16.8425
17.7833
18.6658
19.4883
20.2497
20.9492
21.5865
22.1619
22.6759
23.1295
23.5241
23.8613
24.143
24.3714
24.5487
24.6776
24.7607
24.8008
24.8006
24.7633
24.6916
24.5887
24.4574
24.3008
24.1218
23.9231
23.7077
23.478
23.2368
22.9864
22.729
22.4669
22.2021
21.9363
21.6713
21.4087
21.1497
20.8955
20.6474
20.4061
20.1725
19.9472
19.7307
19.5234
19.3257
19.1376
18.9593
18.7908
18.6321
18.4829
18.3431
18.2125
18.0908
17.9776
17.8726
17.7755
17.6858
17.6031
17.527
17.4571
17.393
17.3342
17.2805
17.2313
17.1863
17.1452
17.1075
17.0729
17.0412
17.012
16.985
16.96
16.9366
16.9148
16.8942
16.8747
16.856
16.8381
16.8207
16.8038
16.7874
16.7715
16.7561
16.7342
16.6548
16.3799
17.3771
3511.85
-538.55
-251.899
-64.3385
-11.2703
2.91841
7.63579
9.91872
11.4827
12.7968
14.0003
15.1346
16.2104
17.2291
18.1895
19.0899
19.9287
20.7045
21.4167
22.065
22.6496
23.171
23.6304
24.0292
24.3689
24.6516
24.8795
25.0551
25.1808
25.2595
25.2941
25.2874
25.2425
25.1625
25.0504
24.9094
24.7424
24.5525
24.3426
24.1156
23.8742
23.6211
23.3586
23.0893
22.8152
22.5385
22.2611
21.9847
21.7108
21.4409
21.1762
20.9178
20.6667
20.4236
20.1893
19.9642
19.7487
19.5431
19.3477
19.1625
18.9875
18.8227
18.6678
18.5227
18.3872
18.2609
18.1435
18.0347
17.9339
17.8409
17.7553
17.6765
17.6041
17.5378
17.4771
17.4215
17.3707
17.3243
17.2819
17.2431
17.2077
17.1751
17.1452
17.1176
17.0921
17.0684
17.0463
17.0254
17.0058
16.9871
16.9691
16.9518
16.935
16.9187
16.903
16.8877
16.8667
16.7939
16.5481
17.4881
3511.86
-538.506
-251.825
-64.2356
-11.1387
3.0782
7.82293
10.1323
11.7217
13.06
14.2865
15.4425
16.5386
17.5761
18.5538
19.4699
20.3227
21.111
21.8339
22.4913
23.0834
23.6108
24.0745
24.476
24.817
25.0996
25.326
25.4988
25.6206
25.6941
25.7225
25.7087
25.6558
25.567
25.4455
25.2943
25.1168
24.9159
24.6947
24.456
24.2028
23.9378
23.6634
23.3821
23.0962
22.8078
22.5188
22.2311
21.9462
21.6655
21.3904
21.122
20.8613
20.6089
20.3657
20.1322
19.9087
19.6955
19.4929
19.301
19.1196
18.9489
18.7885
18.6382
18.4979
18.3672
18.2457
18.1331
18.0289
17.9327
17.8442
17.7627
17.688
17.6196
17.5569
17.4996
17.4473
17.3996
17.356
17.3162
17.2798
17.2465
17.2159
17.1878
17.1619
17.1378
17.1155
17.0945
17.0747
17.056
17.0381
17.0209
17.0043
16.9882
16.9727
16.9577
16.9375
16.8711
16.654
17.5351
3511.87
-538.466
-251.759
-64.1436
-11.021
3.22099
7.9901
10.323
11.9349
13.2948
14.5417
15.7167
16.8306
17.8845
18.8771
19.8067
20.6715
21.4702
22.2021
22.8669
23.4648
23.9965
24.4631
24.8661
25.2072
25.4886
25.7125
25.8816
25.9986
26.0663
26.0879
26.0664
26.005
25.9071
25.7757
25.6143
25.426
25.2139
24.9812
24.7309
24.4659
24.1889
23.9027
23.6095
23.3119
23.0119
22.7116
22.4127
22.1169
21.8257
21.5405
21.2622
20.992
20.7306
20.4787
20.2369
20.0056
19.7851
19.5755
19.3769
19.1894
19.0129
18.8471
18.6918
18.5468
18.4118
18.2864
18.1701
18.0625
17.9633
17.872
17.788
17.711
17.6405
17.576
17.5171
17.4633
17.4143
17.3696
17.3288
17.2916
17.2576
17.2264
17.1978
17.1715
17.1472
17.1246
17.1035
17.0838
17.0651
17.0473
17.0303
17.0139
16.9981
16.9829
16.9681
16.9488
16.8886
16.6987
17.5209
3511.89
-538.431
-251.701
-64.0622
-10.9169
3.34729
8.13792
10.4915
12.1233
13.5019
14.7666
15.9582
17.0874
18.1554
19.1608
20.1017
20.9764
21.7837
22.5227
23.1932
23.7953
24.33
24.7981
25.2013
25.5413
25.8204
26.0409
26.2055
26.3169
26.3781
26.3923
26.3626
26.2924
26.1849
26.0434
25.8714
25.6721
25.4488
25.2046
24.9426
24.6658
24.377
24.0789
23.774
23.4648
23.1534
22.8418
22.532
22.2255
21.924
21.6287
21.3408
21.0613
20.7911
20.5308
20.2809
20.042
19.8142
19.5978
19.3929
19.1994
19.0172
18.8462
18.6861
18.5366
18.3974
18.2681
18.1483
18.0375
17.9353
17.8413
17.7549
17.6757
17.6032
17.5369
17.4764
17.4213
17.371
17.3252
17.2835
17.2455
17.2109
17.1792
17.1502
17.1235
17.099
17.0763
17.0551
17.0354
17.0168
16.9991
16.9824
16.9663
16.9508
16.9359
16.9215
16.903
16.8488
16.6844
17.4487
3511.9
-538.401
-251.65
-63.991
-10.8259
3.45772
8.26708
10.6387
12.2876
13.6825
14.9624
16.1682
17.3104
18.3902
19.4061
20.3564
21.2391
22.053
22.7974
23.4719
24.0769
24.613
25.0813
25.4835
25.8214
26.0972
26.3134
26.4726
26.5777
26.6318
26.638
26.5997
26.5202
26.4028
26.251
26.0683
25.8579
25.6232
25.3674
25.0937
24.8051
24.5046
24.1947
23.8782
23.5575
23.2348
22.9122
22.5916
22.2747
21.9631
21.658
21.3607
21.0722
20.7933
20.5247
20.267
20.0206
19.7859
19.5629
19.3517
19.1524
18.9647
18.7886
18.6238
18.4699
18.3267
18.1937
18.0704
17.9566
17.8515
17.7549
17.6662
17.5848
17.5104
17.4425
17.3805
17.324
17.2726
17.2258
17.1832
17.1445
17.1092
17.077
17.0476
17.0207
16.996
16.9731
16.952
16.9323
16.9138
16.8964
16.8799
16.8641
16.849
16.8346
16.8206
16.8029
16.7542
16.6132
17.3217
3511.9
-538.375
-251.606
-63.9296
-10.7473
3.5529
8.37833
10.7653
12.4289
13.8375
15.1302
16.3478
17.5008
18.5902
19.6147
20.5723
21.4612
22.2801
23.0281
23.7052
24.3114
24.8476
25.315
25.715
26.0497
26.3213
26.5323
26.6854
26.7835
26.8299
26.8277
26.7803
26.6911
26.5636
26.4012
26.2075
25.9859
25.7398
25.4724
25.1871
24.8868
24.5745
24.2531
23.9251
23.5931
23.2593
22.9258
22.5947
22.2675
21.9459
21.6313
21.3248
21.0274
20.7401
20.4635
20.1982
19.9446
19.703
19.4736
19.2564
19.0514
18.8585
18.6775
18.5081
18.35
18.2028
18.0662
17.9397
17.8228
17.715
17.6159
17.5249
17.4415
17.3653
17.2957
17.2323
17.1745
17.122
17.0742
17.0308
16.9914
16.9556
16.923
16.8932
16.8661
16.8412
16.8183
16.7972
16.7776
16.7593
16.7421
16.7259
16.7105
16.6958
16.6818
16.6683
16.6515
16.6078
16.488
17.1432
3511.91
-538.352
-251.569
-63.8775
-10.6807
3.63353
8.47247
10.8724
12.548
13.9681
15.2713
16.4985
17.6601
18.7572
19.7882
20.7513
21.6445
22.4667
23.2169
23.895
24.5012
25.0362
25.5014
25.8982
26.2287
26.4952
26.7002
26.8464
26.937
26.9751
26.964
26.9072
26.808
26.6701
26.4969
26.2922
26.0593
25.8016
25.5227
25.2257
24.9138
24.5899
24.257
23.9177
23.5746
23.2299
22.8858
22.5443
22.2071
21.8758
21.5518
21.2363
20.9304
20.6348
20.3504
20.0777
19.8171
19.5689
19.3332
19.1102
18.8997
18.7017
18.5159
18.3421
18.1799
18.029
17.8889
17.7592
17.6394
17.529
17.4274
17.3343
17.2489
17.171
17.0998
17.035
16.976
16.9225
16.8738
16.8297
16.7896
16.7533
16.7202
16.6902
16.6628
16.6378
16.6149
16.5939
16.5744
16.5563
16.5394
16.5236
16.5086
16.4944
16.4808
16.4678
16.4519
16.4128
16.3119
16.9167
3511.92
-538.334
-251.538
-63.8342
-10.6255
3.70034
8.55036
10.9607
12.6463
14.0754
15.387
16.6217
17.7899
18.8926
19.9284
20.8952
21.7911
22.6149
23.3658
24.0435
24.6483
25.1811
25.6429
26.0355
26.361
26.6215
26.8197
26.9586
27.041
27.0704
27.05
26.9833
26.8739
26.7253
26.5413
26.3253
26.0811
25.812
25.5215
25.2129
24.8894
24.5541
24.2099
23.8594
23.5053
23.1499
22.7954
22.4437
22.0967
21.756
21.4229
21.0987
20.7844
20.4809
20.1889
19.909
19.6416
19.3869
19.1452
18.9165
18.7008
18.4978
18.3074
18.1293
17.9632
17.8087
17.6652
17.5324
17.4098
17.2969
17.193
17.0978
17.0106
16.9309
16.8583
16.7922
16.732
16.6775
16.628
16.5831
16.5424
16.5056
16.4722
16.4419
16.4144
16.3893
16.3664
16.3454
16.3261
16.3083
16.2917
16.2762
16.2616
16.2479
16.2349
16.2224
16.2075
16.1725
16.0882
16.6458
3511.92
-538.319
-251.513
-63.7994
-10.581
3.75406
8.61286
11.0315
12.7247
14.1608
15.4786
16.7189
17.8918
18.9983
20.037
21.0058
21.9029
22.7269
23.4771
24.1531
24.7554
25.2847
25.7422
26.1297
26.4492
26.703
26.8939
27.0247
27.0985
27.1187
27.0886
27.0118
26.8919
26.7325
26.5374
26.3102
26.0546
25.774
25.472
25.1519
24.8171
24.4705
24.1151
23.7536
23.3888
23.0229
22.6582
22.2966
21.94
21.5901
21.2481
20.9154
20.5929
20.2817
19.9824
19.6955
19.4215
19.1606
18.9131
18.6789
18.458
18.2503
18.0555
17.8733
17.7034
17.5453
17.3987
17.2629
17.1376
17.0222
16.9161
16.8189
16.7299
16.6486
16.5746
16.5072
16.446
16.3905
16.3402
16.2946
16.2534
16.2161
16.1824
16.1519
16.1242
16.0991
16.0762
16.0554
16.0362
16.0187
16.0024
15.9873
15.9732
15.96
15.9475
15.9356
15.9215
15.8904
15.8204
16.3341
3511.93
-538.308
-251.493
-63.7724
-10.5467
3.79547
8.6609
11.0857
12.7845
14.2256
15.5477
16.7916
17.9674
19.0761
20.1161
21.0853
21.9821
22.8049
23.553
24.2262
24.8248
25.3496
25.8019
26.1834
26.4962
26.7426
26.9255
27.0477
27.1125
27.123
27.083
26.9958
26.8652
26.6949
26.4887
26.2502
25.9832
25.6912
25.3778
25.0464
24.7002
24.3424
23.9761
23.6039
23.2285
22.8524
22.4777
22.1065
21.7406
21.3816
21.031
20.69
20.3597
20.041
19.7345
19.4409
19.1605
18.8937
18.6405
18.401
18.1752
17.9629
17.7638
17.5777
17.4041
17.2426
17.0929
16.9543
16.8264
16.7086
16.6005
16.5013
16.4106
16.3278
16.2524
16.1838
16.1215
16.0651
16.014
15.9679
15.9261
15.8885
15.8544
15.8237
15.7959
15.7708
15.748
15.7272
15.7083
15.691
15.6751
15.6604
15.6468
15.6341
15.6222
15.6108
15.5977
15.5699
15.5124
15.9853
3511.93
-538.299
-251.479
-63.7527
-10.5218
3.82536
8.69539
11.1243
12.8268
14.271
15.5957
16.8414
18.0184
19.1276
20.1674
21.1357
22.0308
22.8511
23.596
24.2652
24.8591
25.3785
25.8247
26.1994
26.5048
26.7433
26.9176
27.0308
27.0861
27.0867
27.0364
26.9387
26.7973
26.616
26.3986
26.1488
25.8704
25.5671
25.2423
24.8997
24.5424
24.1737
23.7966
23.4138
23.0281
22.642
22.2576
21.8769
21.502
21.1343
20.7753
20.4263
20.0884
19.7624
19.449
19.1489
18.8624
18.5897
18.3311
18.0866
17.856
17.6392
17.436
17.2461
17.069
16.9043
16.7516
16.6103
16.4799
16.3599
16.2496
16.1486
16.0563
15.972
15.8953
15.8256
15.7623
15.7051
15.6533
15.6065
15.5643
15.5262
15.4919
15.461
15.4331
15.408
15.3852
15.3646
15.346
15.3289
15.3134
15.2991
15.286
15.2738
15.2625
15.2518
15.2395
15.2148
15.1678
15.603
3511.93
-538.294
-251.47
-63.74
-10.5057
3.84452
8.71728
11.1485
12.8529
14.2985
15.624
16.87
18.0467
19.1549
20.1931
21.1591
22.0512
22.8679
23.6085
24.2727
24.8609
25.374
25.8134
26.1806
26.478
26.708
26.8733
26.977
27.0225
27.013
26.9521
26.8437
26.6914
26.499
26.2704
26.0094
25.7197
25.4051
25.0692
24.7155
24.3473
23.9678
23.5801
23.1871
22.7913
22.3954
22.0015
21.6117
21.2279
20.8518
20.4847
20.128
19.7827
19.4496
19.1296
18.8232
18.5307
18.2525
17.9886
17.7392
17.504
17.283
17.0759
16.8822
16.7018
16.534
16.3784
16.2345
16.1017
15.9795
15.8674
15.7646
15.6707
15.585
15.507
15.4362
15.3721
15.314
15.2615
15.2142
15.1715
15.1331
15.0985
15.0675
15.0395
15.0144
14.9917
14.9713
14.9528
14.9361
14.9209
14.9071
14.8944
14.8828
14.8721
14.862
14.8506
14.8286
14.7905
15.191
3511.93
-538.291
-251.465
-63.7336
-10.4977
3.85376
8.72751
11.1594
12.864
14.3094
15.6342
16.879
18.0539
19.1598
20.195
21.1576
22.0455
22.8575
23.5928
24.2511
24.8329
25.339
25.7707
26.1299
26.4187
26.6397
26.7956
26.8896
26.9249
26.905
26.8335
26.7142
26.5509
26.3474
26.1077
25.8355
25.5346
25.2089
24.862
24.4973
24.1184
23.7284
23.3304
22.9273
22.5217
22.1163
21.7132
21.3145
20.9222
20.5378
20.1629
19.7987
19.4462
19.1064
18.78
18.4675
18.1693
17.8857
17.6169
17.3627
17.1231
16.898
16.6871
16.4899
16.3062
16.1354
15.9771
15.8307
15.6957
15.5714
15.4574
15.3529
15.2575
15.1705
15.0914
15.0195
14.9544
14.8956
14.8425
14.7946
14.7515
14.7128
14.678
14.6468
14.6188
14.5936
14.5711
14.5508
14.5326
14.5162
14.5014
14.4879
14.4758
14.4647
14.4546
14.4451
14.4346
14.4151
14.3844
14.7529
3511.93
-538.291
-251.465
-63.733
-10.4972
3.85389
8.72703
11.158
12.8613
14.305
15.6277
16.8699
18.0417
19.1441
20.1753
21.1332
22.016
22.8223
23.5514
24.203
24.7776
25.2759
25.6995
26.0501
26.3299
26.5414
26.6876
26.7715
26.7965
26.766
26.6838
26.5536
26.3793
26.1647
25.9139
25.6306
25.3187
24.982
24.6242
24.2489
23.8594
23.4591
23.051
22.6381
22.223
21.8083
21.3963
20.9891
20.5884
20.1962
19.8137
19.4422
19.0829
18.7365
18.4039
18.0856
17.7819
17.4931
17.2194
16.9607
16.717
16.4879
16.2733
16.0728
15.886
15.7124
15.5514
15.4026
15.2654
15.1392
15.0233
14.9173
14.8204
14.7321
14.6519
14.5791
14.5131
14.4535
14.3998
14.3514
14.3079
14.2689
14.2339
14.2025
14.1745
14.1494
14.1269
14.1069
14.0889
14.0728
14.0583
14.0453
14.0336
14.0231
14.0136
14.0047
13.9951
13.9777
13.9533
14.2923
3511.93
-538.293
-251.468
-63.7378
-10.5036
3.84571
8.7168
11.1454
12.846
14.2867
15.6061
16.8445
18.0121
19.1098
20.1358
21.0881
21.9649
22.7647
23.4868
24.131
24.6976
25.1877
25.6025
25.944
26.2144
26.4162
26.5524
26.626
26.6405
26.5993
26.5063
26.3652
26.1799
25.9543
25.6924
25.3981
25.0753
24.7279
24.3594
23.9736
23.5739
23.1635
22.7456
22.3231
21.8988
21.4752
21.0545
20.6389
20.2303
19.8304
19.4405
19.0621
18.6961
18.3435
18.005
17.681
17.3721
17.0784
16.8
16.537
16.2891
16.0564
15.8383
15.6346
15.4448
15.2684
15.1049
14.9539
14.8146
14.6864
14.5689
14.4613
14.3631
14.2736
14.1922
14.1185
14.0517
13.9914
13.9371
13.8883
13.8444
13.8051
13.7699
13.7384
13.7103
13.6852
13.6629
13.643
13.6252
13.6094
13.5953
13.5828
13.5715
13.5615
13.5526
13.5444
13.5355
13.5202
13.5009
13.8128
3511.93
-538.297
-251.475
-63.7474
-10.5162
3.83001
8.69774
11.1228
12.8195
14.256
15.5707
16.8043
17.9666
19.0586
20.0786
21.0244
21.8943
22.6868
23.4012
24.0373
24.5955
25.0768
25.4825
25.8145
26.0752
26.267
26.3929
26.4561
26.4599
26.4081
26.3042
26.1522
25.9559
25.7194
25.4466
25.1415
24.808
24.45
24.0711
23.6751
23.2653
22.8451
22.4177
21.9859
21.5526
21.1203
20.6913
20.2676
19.8513
19.444
19.0471
18.662
18.2897
17.931
17.5868
17.2574
16.9434
16.6449
16.3621
16.0949
15.8433
15.6069
15.3855
15.1787
14.986
14.807
14.6412
14.4879
14.3467
14.2167
14.0975
13.9885
13.8889
13.7983
13.7159
13.6413
13.5737
13.5128
13.4579
13.4086
13.3644
13.3248
13.2894
13.2578
13.2297
13.2047
13.1824
13.1627
13.1452
13.1297
13.1159
13.1037
13.093
13.0835
13.0751
13.0675
13.0595
13.0459
13.0308
13.3177
3511.93
-538.303
-251.485
-63.7613
-10.5343
3.80757
8.67077
11.091
12.7828
14.214
15.5232
16.7508
17.907
18.9924
20.0055
20.9441
21.8064
22.591
23.2971
23.9246
24.4739
24.9459
25.3421
25.6644
25.915
26.0966
26.2121
26.2647
26.2579
26.1953
26.0806
25.9178
25.7107
25.4634
25.1798
24.8641
24.5201
24.1517
23.7626
23.3566
22.937
22.5074
22.0707
21.63
21.188
20.7472
20.3101
19.8787
19.455
19.0406
18.6369
18.2453
17.8669
17.5024
17.1527
16.8182
16.4994
16.1963
15.9093
15.6381
15.3827
15.1429
14.9183
14.7086
14.5132
14.3318
14.1637
14.0083
13.8651
13.7335
13.6127
13.5023
13.4015
13.3097
13.2264
13.1509
13.0826
13.021
12.9656
12.9159
12.8713
12.8314
12.7959
12.7642
12.736
12.7111
12.6889
12.6693
12.6521
12.6368
12.6234
12.6116
12.6013
12.5923
12.5845
12.5775
12.5702
12.5582
12.5467
12.8105
3511.92
-538.311
-251.497
-63.779
-10.5573
3.77915
8.63678
11.0513
12.7371
14.1621
15.4648
16.6857
17.8348
18.913
19.9185
20.8492
21.7033
22.4794
23.1767
23.7952
24.3351
24.7976
25.184
25.4962
25.7367
25.9079
26.0129
26.0549
26.0375
25.9641
25.8387
25.665
25.4472
25.1893
24.8952
24.569
24.2147
23.8362
23.4372
23.0215
22.5925
22.1535
21.7079
21.2585
20.8081
20.3593
19.9144
19.4755
19.0446
18.6234
18.2132
17.8155
17.4311
17.0612
16.7062
16.3668
16.0433
15.7359
15.4448
15.1698
14.9109
14.6678
14.4402
14.2277
14.0297
13.8459
13.6756
13.5183
13.3733
13.24
13.1178
13.006
12.904
12.8112
12.7269
12.6506
12.5816
12.5194
12.4635
12.4134
12.3685
12.3283
12.2926
12.2608
12.2326
12.2077
12.1856
12.1662
12.1492
12.1342
12.1211
12.1097
12.0998
12.0913
12.0839
12.0775
12.071
12.0605
12.0518
12.2944
3511.92
-538.32
-251.512
-63.8002
-10.5846
3.74548
8.59665
11.0045
12.6835
14.1015
15.397
16.6104
17.7518
18.822
19.8193
20.7416
21.587
22.3541
23.0423
23.6513
24.1816
24.6342
25.0106
25.3127
25.5428
25.7036
25.798
25.8295
25.8013
25.7173
25.5812
25.397
25.1687
24.9002
24.5958
24.2594
23.8951
23.5067
23.0981
22.6729
22.2347
21.7868
21.3325
20.8747
20.4162
19.9596
19.5073
19.0612
18.6235
18.1957
17.7793
17.3756
16.9857
16.6104
16.2504
15.9063
15.5784
15.2669
14.9719
14.6933
14.431
14.1848
13.9543
13.7391
13.5387
13.3526
13.1802
13.021
12.8743
12.7394
12.6158
12.5028
12.3997
12.3058
12.2207
12.1436
12.0739
12.0112
11.9548
11.9042
11.859
11.8186
11.7827
11.7508
11.7226
11.6977
11.6757
11.6564
11.6396
11.6249
11.6121
11.601
11.5915
11.5834
11.5766
11.5708
11.5649
11.5557
11.5493
11.7723
3511.92
-538.33
-251.529
-63.8242
-10.6157
3.70728
8.55121
10.9517
12.6231
14.0334
15.321
16.5264
17.6595
18.7212
19.7098
20.6231
21.4594
22.2172
22.8958
23.4951
24.0156
24.4582
24.8244
25.1162
25.3359
25.4862
25.5702
25.591
25.5523
25.4578
25.3112
25.1165
24.8778
24.5991
24.2846
23.9383
23.5642
23.1662
22.7482
22.3139
21.8668
21.4103
20.9476
20.4817
20.0155
19.5514
19.0918
18.6389
18.1946
17.7605
17.3381
16.9288
16.5335
16.1531
15.7884
15.4398
15.1076
14.7922
14.4935
14.2115
13.946
13.6968
13.4636
13.2458
13.0431
12.8548
12.6805
12.5195
12.3711
12.2348
12.1099
11.9956
11.8914
11.7966
11.7106
11.6328
11.5625
11.4992
11.4423
11.3913
11.3458
11.3052
11.2691
11.2372
11.2089
11.184
11.1621
11.143
11.1263
11.1118
11.0993
11.0886
11.0795
11.0718
11.0654
11.0601
11.0548
11.0468
11.0424
11.2473
3511.91
-538.341
-251.548
-63.8508
-10.65
3.66523
8.50126
10.8937
12.557
13.959
15.2382
16.4349
17.5593
18.612
19.5915
20.4956
21.3223
22.0705
22.7394
23.3288
23.8392
24.2717
24.6276
24.9091
25.1184
25.2583
25.3318
25.3422
25.293
25.1881
25.0311
24.8262
24.5774
24.2887
23.9643
23.6083
23.2247
22.8174
22.3904
21.9472
21.4916
21.0268
20.556
20.0824
19.6087
19.1374
18.6709
18.2114
17.7608
17.3207
16.8927
16.4779
16.0775
15.6923
15.323
14.9701
14.634
14.3148
14.0126
13.7273
13.4588
13.2068
12.9709
12.7507
12.5458
12.3555
12.1793
12.0166
11.8667
11.7289
11.6027
11.4873
11.3821
11.2864
11.1995
11.121
11.0501
10.9862
10.9289
10.8776
10.8318
10.791
10.7547
10.7226
10.6943
10.6694
10.6476
10.6286
10.6121
10.5978
10.5855
10.5751
10.5663
10.5591
10.5531
10.5483
10.5436
10.5367
10.5338
10.7219
3511.91
-538.354
-251.569
-63.8794
-10.6869
3.61997
8.44756
10.8315
12.4861
13.8793
15.1496
16.3373
17.4525
18.496
19.4661
20.3606
21.1777
21.916
22.575
23.1543
23.6546
24.0768
24.4225
24.6937
24.8926
25.0221
25.0853
25.0854
25.0259
24.9108
24.7437
24.5288
24.27
23.9716
23.6377
23.2722
22.8794
22.4632
22.0274
21.5757
21.1118
20.639
20.1605
19.6794
19.1985
18.7203
18.2473
17.7815
17.3248
16.879
16.4456
16.0257
15.6204
15.2306
14.857
14.5
14.1601
13.8373
13.5317
13.2434
12.972
12.7173
12.4789
12.2565
12.0494
11.8572
11.6792
11.5149
11.3635
11.2244
11.097
10.9805
10.8743
10.7777
10.6901
10.6109
10.5394
10.475
10.4173
10.3656
10.3195
10.2784
10.242
10.2098
10.1815
10.1566
10.1348
10.1159
10.0995
10.0854
10.0734
10.0633
10.0548
10.0479
10.0423
10.0379
10.0338
10.0279
10.0263
10.1989
3511.91
-538.367
-251.59
-63.9097
-10.7259
3.57212
8.39083
10.7658
12.4114
13.7955
15.0565
16.2349
17.3407
18.3746
19.335
20.2197
21.0269
21.7554
22.4043
22.9735
23.4637
23.8757
24.2111
24.472
24.6607
24.78
24.8329
24.8228
24.7533
24.6281
24.4512
24.2265
23.9581
23.6502
23.307
22.9325
22.5308
22.1059
21.6616
21.2018
20.7299
20.2494
19.7635
19.2753
18.7875
18.3028
17.8234
17.3516
16.8892
16.438
15.9993
15.5745
15.1646
14.7705
14.3928
14.0319
13.6883
13.3622
13.0535
12.7622
12.488
12.2308
11.9901
11.7655
11.5564
11.3624
11.1827
11.0168
10.8641
10.7237
10.5951
10.4776
10.3705
10.2731
10.1847
10.1048
10.0328
9.96794
9.90977
9.85774
9.81133
9.77007
9.7335
9.70119
9.67277
9.64786
9.62614
9.60728
9.59102
9.5771
9.5653
9.5554
9.54722
9.54062
9.53543
9.53143
9.52787
9.52281
9.52227
9.68053
3511.9
-538.38
-251.613
-63.9413
-10.7666
3.52225
8.33175
10.6975
12.3337
13.7084
14.9599
16.1288
17.2249
18.249
19.1996
20.0745
20.8718
21.5902
22.229
22.7882
23.2682
23.6701
23.9953
24.2461
24.4246
24.5338
24.5767
24.5567
24.4773
24.3424
24.1558
23.9216
23.6439
23.3269
22.9747
22.5914
22.1811
21.7478
21.2955
20.8277
20.3482
19.8604
19.3674
18.8724
18.3781
17.887
17.4017
16.9241
16.4563
15.9999
15.5563
15.1269
14.7126
14.3143
13.9326
13.5681
13.2211
12.8918
12.5801
12.286
12.0092
11.7496
11.5067
11.28
11.0691
10.8733
10.6921
10.5247
10.3706
10.2291
10.0994
9.98086
9.87285
9.77465
9.68562
9.60511
9.5325
9.46719
9.40863
9.35625
9.30957
9.26808
9.23134
9.19892
9.17042
9.14549
9.12378
9.10499
9.08883
9.07505
9.06342
9.05374
9.04582
9.0395
9.03464
9.031
9.02791
9.02364
9.02396
9.16896
3511.9
-538.394
-251.636
-63.9739
-10.8086
3.47089
8.27094
10.6272
12.2539
13.6189
14.8608
16.0199
17.1063
18.1206
19.0613
19.9263
20.7136
21.422
22.0508
22.5999
23.0699
23.4617
23.777
24.0177
24.1863
24.2856
24.3187
24.289
24.2
24.0556
23.8596
23.6162
23.3295
23.0036
22.6427
22.251
21.8325
21.3912
20.931
20.4558
19.969
19.4741
18.9744
18.4728
17.9722
17.4752
16.9842
16.5012
16.0282
15.5668
15.1186
14.6847
14.2662
13.864
13.4787
13.1108
12.7605
12.4281
12.1136
11.8168
11.5377
11.2758
11.0308
10.8021
10.5894
10.392
10.2092
10.0405
9.88517
9.74247
9.61175
9.49231
9.38345
9.28451
9.1948
9.11369
9.04056
8.9748
8.91585
8.86314
8.81618
8.77447
8.73756
8.70501
8.67643
8.65146
8.62976
8.61101
8.59493
8.58127
8.56979
8.56029
8.55259
8.54653
8.54195
8.53863
8.53597
8.53241
8.53342
8.66615
3511.89
-538.408
-251.66
-64.0071
-10.8514
3.41853
8.20899
10.5556
12.1726
13.528
14.7601
15.9094
16.9859
17.9905
18.9213
19.7763
20.5537
21.2522
21.871
22.4102
22.8702
23.2522
23.5576
23.7885
23.9474
24.0371
24.0606
24.0214
23.9231
23.7695
23.5645
23.3122
23.0167
22.6823
22.3131
21.9132
21.4868
21.0379
20.5703
20.0878
19.594
19.0925
18.5863
18.0785
17.572
17.0693
16.5728
16.0846
15.6067
15.1407
14.688
14.25
13.8276
13.4217
13.0329
12.6616
12.3083
11.973
11.6559
11.3566
11.0752
10.8111
10.5641
10.3337
10.1193
9.92028
9.73611
9.5661
9.40955
9.26578
9.13408
9.01375
8.90409
8.80443
8.71408
8.63241
8.55877
8.49258
8.43324
8.38021
8.33298
8.29105
8.25396
8.22128
8.19261
8.16759
8.14587
8.12714
8.11112
8.09755
8.0862
8.07685
8.06934
8.06349
8.05916
8.05613
8.05384
8.05091
8.05248
8.17388
3511.89
-538.423
-251.684
-64.0407
-10.8946
3.36564
8.14641
10.4833
12.0906
13.4362
14.6586
15.7982
16.8649
17.8596
18.7806
19.6257
20.3933
21.082
21.691
22.2204
22.6707
23.0429
23.3387
23.5601
23.7095
23.7897
23.804
23.7556
23.6483
23.4858
23.272
23.0112
22.7074
22.3648
21.9875
21.5799
21.1459
20.6896
20.2149
19.7255
19.2252
18.7172
18.2049
17.6912
17.179
16.671
16.1693
15.6763
15.1937
14.7233
14.2664
13.8244
13.3983
12.9889
12.5968
12.2225
11.8662
11.5283
11.2086
10.907
10.6233
10.3573
10.1084
9.87624
9.66024
9.4598
9.27429
9.10305
8.94538
8.80058
8.66795
8.54678
8.43637
8.33602
8.24507
8.16285
8.08873
8.02211
7.96241
7.90907
7.86156
7.81941
7.78213
7.74931
7.72055
7.69546
7.67371
7.65499
7.639
7.6255
7.61424
7.60502
7.59766
7.592
7.58788
7.5851
7.58313
7.58076
7.58278
7.6937
3511.88
-538.437
-251.708
-64.0744
-10.938
3.31261
8.08371
10.4109
12.0085
13.3444
14.5571
15.6869
16.7439
17.7289
18.6402
19.4756
20.2335
20.9125
21.5119
22.0318
22.4725
22.8353
23.1217
23.3337
23.4739
23.5451
23.5503
23.4931
23.377
23.206
22.9838
22.7148
22.4029
22.0524
21.6676
21.2525
20.8112
20.3479
19.8665
19.3706
18.8639
18.3498
17.8317
17.3125
16.7949
16.2818
15.7752
15.2776
14.7906
14.316
13.8552
13.4095
12.9798
12.5671
12.1719
11.7947
11.4357
11.0952
10.7731
10.4694
10.1837
9.9157
9.66508
9.43129
9.21379
9.01197
8.82519
8.65279
8.49406
8.3483
8.21479
8.09282
7.98169
7.88069
7.78915
7.70641
7.63184
7.56481
7.50474
7.45109
7.40332
7.36094
7.32349
7.29052
7.26164
7.23647
7.21468
7.19594
7.17997
7.16651
7.15532
7.1462
7.13896
7.13345
7.1295
7.12693
7.12525
7.12335
7.12572
7.22698
3511.88
-538.452
-251.732
-64.108
-10.9812
3.25982
8.02131
10.3389
11.9269
13.2532
14.4563
15.5765
16.6239
17.5993
18.501
19.3269
20.0753
20.7448
21.3349
21.8454
22.2768
22.6304
22.9076
23.1107
23.242
23.3043
23.3009
23.2352
23.1107
22.9314
22.7012
22.4243
22.1047
21.7467
21.3545
20.9324
20.4843
20.0143
19.5264
19.0243
18.5116
17.9918
17.4681
16.9436
16.421
15.903
15.3919
14.8898
14.3987
13.9202
13.4557
13.0065
12.5735
12.1577
11.7595
11.3796
11.0181
10.6752
10.3508
10.045
9.75737
9.48763
9.23535
9.00003
8.78112
8.578
8.39004
8.21654
8.05681
7.91014
7.7758
7.65307
7.54125
7.43964
7.34754
7.26431
7.18928
7.12186
7.06145
7.00749
6.95946
6.91685
6.87921
6.84609
6.81709
6.79183
6.76997
6.7512
6.73522
6.72178
6.71064
6.70158
6.69444
6.68904
6.68523
6.68283
6.68138
6.67991
6.68255
6.77488
3511.87
-538.466
-251.755
-64.1412
-11.0239
3.20761
7.9596
10.2677
11.8462
13.1631
14.3567
15.4674
16.5054
17.4714
18.3638
19.1804
19.9196
20.5799
21.1608
21.6622
22.0846
22.4293
22.6977
22.892
23.0147
23.0686
23.0569
22.9829
22.8504
22.6632
22.4253
22.1409
21.8139
21.4488
21.0497
20.6207
20.1661
19.6898
19.1958
18.6878
18.1694
17.6442
17.1153
16.5858
16.0584
15.5359
15.0204
14.5142
14.0192
13.537
13.069
12.6164
12.1804
11.7616
11.3607
10.9782
10.6143
10.2692
9.94275
9.63495
9.34551
9.07409
8.82026
8.5835
8.36327
8.15893
7.96985
7.79532
7.63465
7.48711
7.35199
7.22855
7.11608
7.01387
6.92125
6.83753
6.76208
6.69427
6.63352
6.57927
6.53097
6.48814
6.4503
6.41702
6.38789
6.36253
6.3406
6.32177
6.30577
6.29232
6.2812
6.27219
6.2651
6.25979
6.25609
6.25382
6.25256
6.25145
6.25429
6.3384
3511.87
-538.48
-251.779
-64.1739
-11.0659
3.15625
7.89893
10.1977
11.7669
13.0745
14.2589
15.3604
16.3892
17.3461
18.2293
19.0369
19.767
20.4184
20.9904
21.483
21.8968
22.2329
22.4928
22.6787
22.7932
22.8389
22.8192
22.7374
22.5972
22.4025
22.1572
21.8656
21.5316
21.1597
20.754
20.3186
19.8578
19.3755
18.8757
18.3621
17.8384
17.308
16.7742
16.24
15.7081
15.1813
14.6618
14.1517
13.653
13.1673
12.696
12.2404
11.8014
11.3799
10.9764
10.5915
10.2253
9.87808
9.54971
9.24008
8.94895
8.67595
8.42066
8.18256
7.96108
7.7556
7.56546
7.38996
7.2284
7.08005
6.94418
6.82007
6.70698
6.60422
6.51108
6.42691
6.35104
6.28287
6.22179
6.16724
6.11869
6.07563
6.0376
6.00415
5.97487
5.9494
5.92737
5.90848
5.89243
5.87896
5.86783
5.85884
5.85179
5.84652
5.8429
5.84072
5.83963
5.83881
5.84179
5.91832
3511.86
-538.494
-251.802
-64.2059
-11.107
3.10601
7.83958
10.1293
11.6894
12.988
14.1633
15.2559
16.2758
17.2237
18.0982
18.897
19.6184
20.2611
20.8246
21.3087
21.7141
22.0419
22.2937
22.4716
22.5781
22.616
22.5887
22.4994
22.3519
22.15
21.8977
21.5992
21.2587
20.8803
20.4683
20.0269
19.5602
19.0722
18.5669
18.0481
17.5194
16.9842
16.4457
15.907
15.371
14.8401
14.3167
13.803
13.3009
12.8119
12.3375
11.879
11.4373
11.0132
10.6073
10.2201
9.85186
9.50263
9.17243
8.86109
8.56837
8.2939
8.03724
7.79787
7.57523
7.36867
7.17753
7.00113
6.83873
6.68961
6.55304
6.42828
6.31461
6.21132
6.1177
6.03308
5.95682
5.88829
5.82689
5.77205
5.72324
5.67996
5.64173
5.6081
5.57868
5.55308
5.53095
5.51198
5.49586
5.48235
5.47119
5.46219
5.45515
5.44991
5.44632
5.44422
5.44323
5.44267
5.44572
5.51529
3511.86
-538.507
-251.824
-64.237
-11.147
3.05711
7.78182
10.0627
11.614
12.9038
14.0704
15.1543
16.1655
17.1049
17.9708
18.7612
19.4742
20.1086
20.6638
21.1398
21.5372
21.857
22.101
22.2712
22.3702
22.4007
22.366
22.2696
22.1151
21.9064
21.6475
21.3426
20.9957
20.6113
20.1933
19.7462
19.2739
18.7806
18.2702
17.7465
17.213
16.6732
16.1304
15.5875
15.0475
14.5128
13.9859
13.4688
12.9634
12.4714
11.9941
11.5329
11.0886
10.6621
10.254
9.86468
9.49443
9.14336
8.81143
8.49849
8.20428
7.92843
7.67049
7.42994
7.2062
6.99864
6.80657
6.62931
6.46612
6.31628
6.17905
6.05368
5.93946
5.83565
5.74157
5.65654
5.5799
5.51102
5.4493
5.39418
5.34512
5.30161
5.26317
5.22937
5.19979
5.17406
5.15181
5.13274
5.11654
5.10296
5.09176
5.08273
5.07567
5.07043
5.06686
5.06479
5.06388
5.06352
5.06661
5.12977
3511.85
-538.52
-251.845
-64.2672
-11.1858
3.00971
7.72585
9.9982
11.541
12.8223
13.9805
15.056
16.0589
16.99
17.8477
18.6299
19.3349
19.9613
20.5087
20.9769
21.3666
21.6788
21.9153
22.0782
22.17
22.1934
22.1519
22.0487
21.8876
21.6724
21.4073
21.0962
20.7434
20.3531
19.9296
19.4771
18.9996
18.5013
17.9861
17.4576
16.9197
16.3757
15.8287
15.282
14.7383
14.2001
13.6697
13.1494
12.641
12.1462
11.6662
11.2024
10.7558
10.327
9.9168
9.52551
9.15342
8.80062
8.46709
8.15266
7.85706
7.57992
7.32078
7.07913
6.85436
6.64585
6.45291
6.27484
6.11092
5.9604
5.82253
5.69659
5.58184
5.47756
5.38303
5.2976
5.22058
5.15137
5.08935
5.03395
4.98464
4.9409
4.90226
4.86828
4.83854
4.81266
4.79028
4.7711
4.75481
4.74115
4.72988
4.72079
4.7137
4.70843
4.70485
4.70278
4.70192
4.70171
4.70479
4.76207
3511.85
-538.532
-251.866
-64.2963
-11.2233
2.96398
7.67186
9.93598
11.4706
12.7437
13.8938
14.9613
15.9562
16.8793
17.7292
18.5036
19.2008
19.8197
20.3595
20.8203
21.2026
21.5077
21.7371
21.893
21.9779
21.9947
21.9466
21.837
21.6696
21.4484
21.1773
20.8605
20.5021
20.1064
19.6777
19.22
18.7377
18.2346
17.7148
17.1821
16.6399
16.0919
15.5412
14.9908
14.4436
13.902
13.3686
12.8453
12.3341
11.8365
11.3541
10.8879
10.439
10.0082
9.59601
9.20288
8.82907
8.47467
8.13964
7.82381
7.52691
7.24857
6.98831
6.74562
6.5199
6.3105
6.11674
5.93792
5.7733
5.62213
5.48368
5.3572
5.24194
5.1372
5.04226
4.95643
4.87907
4.80953
4.74721
4.69154
4.64198
4.59802
4.55917
4.525
4.49509
4.46906
4.44655
4.42724
4.41084
4.39708
4.38573
4.37657
4.36942
4.3641
4.36048
4.35839
4.35755
4.35744
4.36049
4.41237
3511.85
-538.544
-251.886
-64.3243
-11.2593
2.92004
7.61999
9.8762
11.403
12.6683
13.8106
14.8703
15.8576
16.7732
17.6155
18.3825
19.0724
19.6839
20.2166
20.6703
21.0457
21.3439
21.5666
21.716
21.7944
21.8049
21.7505
21.6349
21.4617
21.2347
20.958
20.6357
20.2721
19.8713
19.4376
18.9753
18.4883
17.9809
17.4568
16.92
16.3739
15.8222
15.2679
14.7141
14.1636
13.619
13.0826
12.5566
12.0427
11.5427
11.0579
10.5895
10.1385
9.70576
9.29174
8.89691
8.52149
8.16559
7.82917
7.51204
7.21393
6.93446
6.67316
6.4295
6.20288
5.99265
5.79813
5.61859
5.45332
5.30155
5.16254
5.03554
4.91982
4.81464
4.71929
4.6331
4.55539
4.48554
4.42293
4.367
4.31719
4.273
4.23395
4.19959
4.1695
4.14331
4.12065
4.10121
4.08469
4.07082
4.05937
4.05013
4.04289
4.03751
4.03383
4.03169
4.03084
4.0308
4.03378
4.08071
3511.84
-538.556
-251.905
-64.3512
-11.2937
2.87796
7.57033
9.81899
11.3383
12.5961
13.731
14.7834
15.7633
16.6717
17.5069
18.2668
18.9497
19.5544
20.0802
20.5273
20.8961
21.1878
21.4042
21.5473
21.6196
21.6241
21.5639
21.4426
21.2638
21.0315
20.7495
20.4222
20.0536
19.6481
19.2098
18.743
18.2517
17.7401
17.2121
16.6715
16.1218
15.5665
15.0089
14.452
13.8985
13.351
12.8119
12.2833
11.767
11.2646
10.7776
10.3072
9.85432
9.41972
9.004
8.60757
8.23066
7.87337
7.53565
7.21731
6.91807
6.63755
6.37528
6.13072
5.90326
5.69225
5.49701
5.31681
5.15092
4.99858
4.85904
4.73156
4.61539
4.50979
4.41406
4.32751
4.24948
4.17932
4.11643
4.06024
4.01019
3.96578
3.92652
3.89197
3.8617
3.83534
3.81253
3.79295
3.77629
3.76231
3.75074
3.74139
3.73406
3.72859
3.72483
3.72263
3.72174
3.72174
3.72461
3.76702
3511.84
-538.567
-251.924
-64.3767
-11.3266
2.83783
7.52296
9.76443
11.2765
12.5273
13.6551
14.7005
15.6735
16.575
17.4034
18.1566
18.8329
19.4311
19.9505
20.3912
20.7538
21.0395
21.2499
21.3871
21.4537
21.4526
21.3869
21.2603
21.0763
20.8389
20.552
20.2199
19.8467
19.4367
18.9941
18.5232
18.0279
17.5125
16.9808
16.4366
15.8836
15.3251
14.7643
14.2044
13.6481
13.098
12.5564
12.0253
11.5067
11.0023
10.5133
10.0409
9.58624
9.14996
8.73266
8.33475
7.95646
7.59787
7.25894
6.93947
6.63918
6.35769
6.09451
5.8491
5.62086
5.40913
5.21321
5.03239
4.86592
4.71304
4.57301
4.44507
4.32847
4.22248
4.12638
4.0395
3.96115
3.89069
3.82753
3.77109
3.7208
3.67617
3.6367
3.60195
3.57151
3.54497
3.522
3.50227
3.48547
3.47135
3.45966
3.4502
3.44276
3.43718
3.43332
3.43103
3.43008
3.43009
3.43284
3.47112
3511.84
-538.577
-251.941
-64.4011
-11.3579
2.79967
7.47794
9.71258
11.2179
12.4619
13.5831
14.6218
15.5883
16.4833
17.3053
18.0521
18.7222
19.3142
19.8276
20.2623
20.6191
20.899
21.1037
21.2354
21.2967
21.2903
21.2195
21.0879
20.899
20.6569
20.3655
20.0289
19.6515
19.2373
18.7907
18.3159
17.8169
17.2979
16.7628
16.2153
15.6591
15.0976
14.534
13.9713
13.4124
12.8598
12.3158
11.7826
11.2619
10.7554
10.2646
9.79047
9.33412
8.89628
8.47751
8.07823
7.69865
7.33886
6.9988
6.67829
6.37703
6.09462
5.8306
5.5844
5.35543
5.14302
4.94647
4.76506
4.59805
4.44467
4.30417
4.1758
4.05879
3.95242
3.85598
3.76877
3.69011
3.61938
3.55595
3.49925
3.44874
3.40388
3.36421
3.32927
3.29864
3.27193
3.24879
3.2289
3.21196
3.19769
3.18587
3.17627
3.16871
3.16302
3.15905
3.15665
3.15562
3.15561
3.15821
3.19272
3511.83
-538.587
-251.958
-64.4241
-11.3875
2.76352
7.43528
9.66345
11.1624
12.4
13.5148
14.5473
15.5076
16.3965
17.2124
17.9533
18.6175
19.2037
19.7114
20.1406
20.4918
20.7663
20.9658
21.0924
21.1486
21.1373
21.0617
20.9254
20.732
20.4855
20.1898
19.8491
19.4677
19.0496
18.5993
18.1209
17.6185
17.0962
16.5579
16.0074
15.4482
14.8839
14.3177
13.7525
13.1912
12.6363
12.0901
11.5548
11.0322
10.5239
10.0313
9.55556
9.09767
8.65838
8.23826
7.8377
7.45693
7.09603
6.75493
6.43344
6.13127
5.84802
5.5832
5.33628
5.10662
4.89357
4.69644
4.51448
4.34695
4.1931
4.05216
3.92337
3.80599
3.69926
3.60248
3.51496
3.43601
3.365
3.30132
3.24438
3.19363
3.14856
3.10868
3.07355
3.04273
3.01585
2.99254
2.97249
2.95539
2.94097
2.92901
2.91927
2.91157
2.90575
2.90165
2.89914
2.89801
2.89795
2.9004
2.93146
3511.83
-538.597
-251.973
-64.4459
-11.4155
2.72935
7.39498
9.61705
11.1099
12.3415
13.4504
14.477
15.4314
16.3146
17.1248
17.8601
18.5188
19.0996
19.6019
20.0258
20.372
20.6415
20.836
20.9578
21.0093
20.9934
20.9134
20.7727
20.5752
20.3245
20.0249
19.6804
19.2952
18.8736
18.4198
17.9381
17.4325
16.9071
16.3659
15.8125
15.2507
14.6838
14.1151
13.5476
12.9841
12.4271
11.8789
11.3417
10.8173
10.3073
9.81307
9.33583
8.87652
8.43589
8.01452
7.61278
7.23091
6.86897
6.5269
6.20451
5.9015
5.61746
5.35191
5.1043
4.87401
4.66037
4.46268
4.28021
4.1122
3.9579
3.81655
3.68737
3.56962
3.46255
3.36546
3.27763
3.1984
3.12713
3.0632
3.00602
2.95505
2.90976
2.86968
2.83435
2.80335
2.77629
2.75281
2.73259
2.71533
2.70076
2.68864
2.67875
2.67091
2.66495
2.66072
2.65808
2.65684
2.65671
2.65898
2.6869
3511.83
-538.605
-251.988
-64.4665
-11.4418
2.69717
7.35702
9.57335
11.0605
12.2865
13.3898
14.4108
15.3598
16.2375
17.0424
17.7725
18.426
19.0017
19.4991
19.9181
20.2594
20.5242
20.7142
20.8315
20.8786
20.8585
20.7744
20.6297
20.4282
20.1738
19.8705
19.5224
19.1338
18.7089
18.252
17.7672
17.2586
16.7304
16.1865
15.6305
15.0662
14.497
13.926
13.3563
12.7908
12.2318
11.6818
11.1428
10.6168
10.1052
9.60951
9.13087
8.67025
8.22838
7.80585
7.40302
7.02013
6.65724
6.31427
5.99105
5.68725
5.40248
5.13625
4.888
4.65711
4.44292
4.24471
4.06175
3.8933
3.73858
3.59683
3.46728
3.34918
3.2418
3.14439
3.05628
2.97678
2.90525
2.84108
2.78367
2.73248
2.68699
2.6467
2.61118
2.57999
2.55275
2.5291
2.50871
2.49128
2.47655
2.46427
2.45423
2.44624
2.44013
2.43575
2.43297
2.43161
2.43139
2.43348
2.45855
3511.82
-538.614
-252.002
-64.4858
-11.4666
2.66693
7.32135
9.5323
11.0141
12.2348
13.3328
14.3487
15.2926
16.1653
16.9652
17.6904
18.339
18.91
19.4027
19.8172
20.1541
20.4145
20.6002
20.7134
20.7564
20.7324
20.6444
20.496
20.2909
20.033
19.7263
19.375
18.9832
18.5553
18.0954
17.6078
17.0965
16.5657
16.0193
15.4609
14.8944
14.3229
13.7499
13.1783
12.6108
12.05
11.4984
10.9578
10.4302
9.91717
9.42012
8.9402
8.47837
8.03537
7.61176
7.20793
6.82409
6.46031
6.11652
5.79252
5.48799
5.20254
4.93568
4.68683
4.45539
4.24068
4.04198
3.85858
3.6897
3.53458
3.39246
3.26256
3.14413
3.03644
2.93875
2.85036
2.7706
2.69882
2.63441
2.57678
2.52538
2.47968
2.4392
2.40348
2.3721
2.34468
2.32085
2.30029
2.2827
2.26781
2.25537
2.24517
2.23702
2.23075
2.22622
2.22329
2.22179
2.22148
2.22338
2.24585
3511.82
-538.622
-252.015
-64.5039
-11.4899
2.63859
7.28793
9.49383
10.9706
12.1864
13.2795
14.2906
15.2296
16.0976
16.8929
17.6135
18.2577
18.8243
19.3127
19.7229
20.0557
20.3121
20.4939
20.6031
20.6425
20.6148
20.5233
20.3715
20.163
19.9019
19.5921
19.2378
18.8431
18.4124
17.9498
17.4596
16.9458
16.4126
15.8639
15.3034
14.7347
14.1613
13.5864
13.0129
12.4437
11.8813
11.3281
10.786
10.257
9.7427
9.2444
8.7633
8.30036
7.85631
7.43171
7.02695
6.64224
6.27765
5.93308
5.60836
5.30316
5.01708
4.74962
4.50023
4.26826
4.05307
3.85392
3.67008
3.50081
3.34531
3.20284
3.07261
2.95387
2.84588
2.74791
2.65926
2.57925
2.50724
2.4426
2.38475
2.33313
2.28723
2.24656
2.21065
2.17909
2.15149
2.12749
2.10676
2.089
2.07393
2.06133
2.05097
2.04266
2.03623
2.03155
2.02846
2.02682
2.02639
2.02809
2.0482
3511.82
-538.629
-252.027
-64.5208
-11.5116
2.61209
7.25668
9.45788
10.93
12.1411
13.2297
14.2363
15.1709
16.0345
16.8254
17.5418
18.1818
18.7443
19.2287
19.6351
19.964
20.2167
20.3948
20.5006
20.5365
20.5054
20.4107
20.2557
20.0442
19.7801
19.4675
19.1104
18.7131
18.2798
17.8147
17.3221
16.8061
16.2707
15.7199
15.1574
14.5868
14.0116
13.4349
12.8598
12.289
11.7251
11.1705
10.6271
10.0968
9.58124
9.08179
8.59961
8.13564
7.69063
7.26513
6.85951
6.474
6.10864
5.76337
5.43798
5.13216
4.84549
4.57748
4.32757
4.09512
3.87947
3.67989
3.49566
3.326
3.17016
3.02735
2.89681
2.77778
2.6695
2.57127
2.48236
2.40211
2.32987
2.26501
2.20695
2.15513
2.10903
2.06816
2.03207
2.00033
1.97255
1.94837
1.92747
1.90954
1.89431
1.88154
1.87101
1.86254
1.85595
1.8511
1.84786
1.84606
1.84551
1.84701
1.86498
3511.82
-538.636
-252.038
-64.5366
-11.5319
2.58735
7.22752
9.42433
10.8921
12.0989
13.1833
14.1856
15.1161
15.9756
16.7626
17.4751
18.1112
18.67
19.1507
19.5534
19.8788
20.1281
20.3028
20.4053
20.438
20.4039
20.3062
20.1483
19.9341
19.6673
19.352
18.9924
18.5927
18.157
17.6897
17.195
16.6769
16.1396
15.5868
15.0225
14.4502
13.8733
13.295
12.7184
12.1462
11.5809
11.025
10.4803
9.94888
9.43222
8.93172
8.44855
7.98364
7.53774
7.1114
6.705
6.31875
5.95269
5.60677
5.28076
4.97435
4.68713
4.41861
4.16822
3.93532
3.71924
3.51927
3.33465
3.16464
3.00846
2.86534
2.7345
2.61518
2.50664
2.40815
2.319
2.23852
2.16606
2.10098
2.04271
1.9907
1.94441
1.90335
1.86707
1.83516
1.8072
1.78285
1.76178
1.74368
1.72828
1.71534
1.70465
1.69601
1.68926
1.68424
1.68084
1.67889
1.67821
1.67951
1.69554
3511.81
-538.642
-252.048
-64.5513
-11.5508
2.56431
7.20037
9.39309
10.8568
12.0597
13.1401
14.1385
15.0652
15.9209
16.7042
17.413
18.0457
18.6009
19.0782
19.4776
19.7998
20.0459
20.2176
20.3171
20.3469
20.31
20.2095
20.0491
19.8322
19.563
19.2453
18.8834
18.4815
18.0437
17.5744
17.0777
16.5578
16.0186
15.4641
14.8982
14.3243
13.7458
13.1661
12.5881
12.0146
11.4481
10.891
10.3452
9.81271
9.29504
8.79359
8.30951
7.84374
7.39703
6.96992
6.5628
6.17586
5.80916
5.46262
5.13604
4.82909
4.54137
4.27237
4.02153
3.7882
3.57172
3.37137
3.18641
3.01606
2.85957
2.71614
2.58502
2.46543
2.35664
2.2579
2.16852
2.08781
2.01513
1.94985
1.89138
1.83917
1.79269
1.75145
1.715
1.6829
1.65478
1.63025
1.60901
1.59074
1.57518
1.56208
1.55122
1.54242
1.5355
1.53032
1.52674
1.52464
1.52382
1.52492
1.53919
3511.81
-538.648
-252.058
-64.565
-11.5683
2.54289
7.17512
9.36406
10.8241
12.0232
13.0999
14.0948
15.0179
15.8702
16.6501
17.3555
17.9849
18.5369
19.0111
19.4075
19.7267
19.9699
20.1388
20.2356
20.2627
20.2233
20.1203
19.9574
19.7383
19.4668
19.147
18.783
18.3791
17.9394
17.4682
16.9698
16.4481
15.9073
15.3513
14.7839
14.2085
13.6288
13.0477
12.4685
11.8938
11.3262
10.768
10.2212
9.6877
9.1691
8.66678
8.18187
7.71531
7.26786
6.84005
6.43226
6.04469
5.67739
5.3303
5.00318
4.69574
4.40754
4.1381
3.88683
3.65311
3.43625
3.23555
3.05025
2.87959
2.72279
2.57908
2.44769
2.32784
2.2188
2.11983
2.03023
1.9493
1.87641
1.81093
1.75227
1.69987
1.65321
1.61179
1.57516
1.54289
1.51459
1.4899
1.46849
1.45006
1.43433
1.42107
1.41004
1.40107
1.39399
1.38864
1.38491
1.38264
1.38168
1.38258
1.39527
3511.81
-538.653
-252.067
-64.5777
-11.5847
2.52299
7.15167
9.33709
10.7936
11.9893
13.0627
14.0542
14.9741
15.8232
16.5999
17.3023
17.9286
18.4777
18.949
19.3426
19.6591
19.8997
20.066
20.1603
20.1851
20.1433
20.0381
19.8731
19.6518
19.3783
19.0566
18.6907
18.285
17.8436
17.3708
16.8707
16.3475
15.8053
15.2479
14.679
14.1024
13.5214
12.9393
12.3589
11.7831
11.2145
10.6553
10.1076
9.57322
9.0538
8.55067
8.06501
7.59774
7.1496
6.72115
6.31274
5.92459
5.55675
5.20913
4.88153
4.57362
4.28498
4.01512
3.76346
3.52937
3.31216
3.11112
2.9255
2.75454
2.59746
2.45348
2.32182
2.20173
2.09246
1.99326
1.90344
1.82231
1.74922
1.68355
1.6247
1.57211
1.52527
1.48368
1.44688
1.41444
1.38597
1.36112
1.33954
1.32095
1.30506
1.29163
1.28044
1.27131
1.26406
1.25855
1.25465
1.25222
1.25112
1.25183
1.26308
3511.81
-538.658
-252.076
-64.5895
-11.5998
2.50452
7.12991
9.31209
10.7654
11.9579
13.0282
14.0167
14.9335
15.7796
16.5535
17.253
17.8766
18.423
18.8917
19.2828
19.5968
19.835
19.999
20.091
20.1136
20.0697
19.9625
19.7955
19.5724
19.2971
18.9736
18.6061
18.1987
17.7558
17.2815
16.78
16.2554
15.7119
15.1532
14.5832
14.0054
13.4233
12.8401
12.2587
11.682
11.1124
10.5524
10.0038
9.46869
8.9485
8.44466
7.95831
7.49038
7.04163
6.61258
6.20361
5.81493
5.44658
5.09849
4.77042
4.46208
4.17303
3.90278
3.65075
3.41631
3.19877
2.99741
2.81149
2.64025
2.48289
2.33865
2.20675
2.08643
1.97693
1.87751
1.78748
1.70615
1.63287
1.56701
1.50797
1.45521
1.4082
1.36643
1.32946
1.29686
1.26823
1.24322
1.22148
1.20272
1.18667
1.17309
1.16174
1.15245
1.14504
1.13937
1.1353
1.13272
1.13147
1.13199
1.14195
3511.81
-538.663
-252.084
-64.6005
-11.6139
2.48738
7.10974
9.2889
10.7393
11.9289
12.9962
13.9819
14.896
15.7394
16.5106
17.2075
17.8286
18.3726
18.8389
19.2276
19.5394
19.7754
19.9373
20.0273
20.048
20.0022
19.8932
19.7244
19.4996
19.2227
18.8976
18.5286
18.1198
17.6755
17.1998
16.6971
16.1713
15.6266
15.0668
14.4957
13.9169
13.3339
12.7497
12.1674
11.5899
11.0195
10.4586
9.90935
9.37348
8.85261
8.34812
7.86114
7.39263
6.9433
6.51372
6.10424
5.71506
5.34625
4.99771
4.66922
4.36047
4.07104
3.80043
3.54805
3.31328
3.09542
2.89377
2.70757
2.53605
2.37843
2.23395
2.10181
1.98126
1.87154
1.77192
1.68169
1.60016
1.52669
1.46064
1.40143
1.3485
1.30131
1.25939
1.22225
1.18949
1.1607
1.13553
1.11363
1.09472
1.07852
1.06477
1.05327
1.04382
1.03625
1.03042
1.0262
1.02346
1.02207
1.02239
1.03119
3511.81
-538.667
-252.091
-64.6106
-11.6269
2.47149
7.09103
9.26742
10.715
11.9019
12.9667
13.9497
14.8612
15.7022
16.4709
17.1655
17.7843
18.3261
18.7902
19.1768
19.4866
19.7206
19.8807
19.9689
19.9877
19.9403
19.8296
19.6593
19.433
19.1546
18.8282
18.4578
18.0478
17.6022
17.1254
16.6215
16.0947
15.5489
14.9882
14.4162
13.8365
13.2525
12.6675
12.0845
11.5061
10.935
10.3735
9.82353
9.28702
8.76554
8.26045
7.77291
7.30386
6.85402
6.42394
6.01399
5.62436
5.25512
4.90616
4.57729
4.26816
3.97838
3.70742
3.45471
3.21963
3.00148
2.79954
2.61306
2.44129
2.28343
2.1387
2.00634
1.88557
1.77564
1.67581
1.58539
1.50367
1.43002
1.3638
1.30442
1.25131
1.20396
1.16187
1.12458
1.09166
1.06272
1.03739
1.01535
0.99628
0.979922
0.966025
0.954371
0.944768
0.937045
0.931059
0.926682
0.923791
0.922259
0.922402
0.930153
3511.8
-538.671
-252.098
-64.6201
-11.639
2.45675
7.07368
9.2475
10.6926
11.877
12.9393
13.9199
14.8291
15.6678
16.4343
17.1268
17.7435
18.2832
18.7454
19.1301
19.438
19.6703
19.8286
19.9152
19.9325
19.8835
19.7714
19.5997
19.3721
19.0924
18.7648
18.3933
17.9821
17.5355
17.0577
16.5528
16.025
15.4784
14.9168
14.3439
13.7634
13.1787
12.593
12.0093
11.4303
10.8585
10.2963
9.74579
9.20871
8.68668
8.18107
7.69302
7.22348
6.77317
6.34264
5.93226
5.54222
5.17258
4.82324
4.494
4.18452
3.8944
3.62312
3.37011
3.13473
2.9163
2.71409
2.52736
2.35533
2.19723
2.05228
1.9197
1.79872
1.68858
1.58856
1.49795
1.41605
1.34222
1.27583
1.21628
1.16301
1.1155
1.07326
1.03581
1.00274
0.973644
0.948166
0.925971
0.906757
0.890251
0.876206
0.864404
0.854651
0.846779
0.840642
0.836114
0.833075
0.831403
0.831371
0.83818
3511.8
-538.675
-252.104
-64.6289
-11.6503
2.44306
7.05758
9.22901
10.6718
11.8539
12.9139
13.8924
14.7994
15.636
16.4005
17.091
17.7058
18.2437
18.7041
19.0871
19.3934
19.6241
19.7809
19.866
19.882
19.8316
19.7183
19.5453
19.3165
19.0358
18.7071
18.3346
17.9224
17.4749
16.9962
16.4905
15.9619
15.4145
14.8521
14.2785
13.6974
13.112
12.5256
11.9413
11.3617
10.7894
10.2267
9.67558
9.13799
8.61547
8.10939
7.62089
7.1509
6.70017
6.26923
5.85845
5.46804
5.09803
4.74834
4.41875
4.10895
3.81852
3.54693
3.29363
3.05797
2.83927
2.63681
2.44982
2.27756
2.11923
1.97406
1.84127
1.72008
1.60975
1.50955
1.41875
1.33668
1.26267
1.19611
1.1364
1.08297
1.03531
0.992909
0.955312
0.922091
0.892851
0.867228
0.844889
0.825531
0.808881
0.794693
0.782747
0.77285
0.764833
0.75855
0.753876
0.750692
0.748884
0.748685
0.754647
3511.8
-538.679
-252.11
-64.637
-11.6607
2.43033
7.04261
9.21184
10.6524
11.8324
12.8904
13.8668
14.7719
15.6066
16.3693
17.058
17.671
18.2073
18.6661
19.0476
19.3524
19.5817
19.7372
19.821
19.8357
19.7842
19.6697
19.4957
19.2659
18.9842
18.6546
18.2812
17.8682
17.4199
16.9404
16.434
15.9047
15.3566
14.7936
14.2195
13.6377
13.0518
12.4649
11.88
11.2999
10.7271
10.1639
9.61236
9.07432
8.55137
8.04486
7.55595
7.08558
6.63446
6.20315
5.79201
5.40124
5.03089
4.68088
4.35098
4.04087
3.75014
3.47827
3.22469
2.98877
2.76981
2.5671
2.37988
2.20739
2.04884
1.90346
1.77046
1.64908
1.53856
1.43816
1.34719
1.26494
1.19077
1.12405
1.06418
1.0106
0.96278
0.920231
0.882488
0.849123
0.81974
0.793976
0.771497
0.752
0.735212
0.720884
0.708799
0.698763
0.690606
0.684183
0.679368
0.676045
0.674105
0.673745
0.678949
3511.8
-538.682
-252.115
-64.6446
-11.6705
2.41846
7.02866
9.19584
10.6344
11.8125
12.8685
13.8431
14.7464
15.5793
16.3403
17.0274
17.6389
18.1736
18.631
19.0112
19.3146
19.5427
19.697
19.7797
19.7933
19.7408
19.6254
19.4505
19.2198
18.9373
18.6069
18.2327
17.8191
17.3701
16.89
16.3829
15.8531
15.3044
14.7409
14.1662
13.584
12.9976
12.4102
11.8249
11.2444
10.6711
10.1075
9.5556
9.01717
8.49383
7.98696
7.49769
7.02695
6.57549
6.14385
5.73238
5.34129
4.97063
4.62031
4.29011
3.97972
3.68871
3.41657
3.16273
2.92655
2.70735
2.5044
2.31695
2.14424
1.98548
1.83989
1.70669
1.58512
1.47441
1.37384
1.28269
1.20028
1.12594
1.05906
0.999037
0.945306
0.897341
0.854647
0.816762
0.783257
0.753736
0.727836
0.705221
0.685589
0.668666
0.654205
0.641986
0.631816
0.623524
0.616966
0.612016
0.608559
0.606492
0.60598
0.610504
3511.8
-538.685
-252.12
-64.6518
-11.6796
2.40737
7.01563
9.18091
10.6176
11.7939
12.8482
13.821
14.7227
15.554
16.3135
16.9991
17.6092
18.1426
18.5987
18.9776
19.2799
19.5069
19.6601
19.7418
19.7545
19.7012
19.5849
19.4092
19.1778
18.8946
18.5635
18.1888
17.7745
17.325
16.8444
16.3369
15.8065
15.2574
14.6935
14.1184
13.5357
12.9489
12.3612
11.7755
11.1946
10.621
10.0571
9.5048
8.96603
8.44237
7.93517
7.44557
6.97453
6.52275
6.0908
5.67903
5.28765
4.9167
4.5661
4.23563
3.92497
3.63369
3.3613
3.10721
2.87079
2.65135
2.44818
2.26051
2.08758
1.92861
1.78282
1.64943
1.52767
1.41678
1.31604
1.22472
1.14214
1.06764
1.00061
0.94043
0.886552
0.838443
0.795608
0.757585
0.723944
0.694289
0.668256
0.64551
0.625748
0.608696
0.594106
0.581758
0.571459
0.563038
0.556351
0.551271
0.547687
0.545496
0.54484
0.548756
3511.8
-538.688
-252.125
-64.6585
-11.6882
2.39696
7.00341
9.16692
10.6019
11.7765
12.8291
13.8004
14.7005
15.5304
16.2885
16.9728
17.5816
18.1138
18.5687
18.9466
19.2479
19.4739
19.6262
19.7071
19.719
19.6649
19.5479
19.3716
19.1396
18.8558
18.5242
18.149
17.7343
17.2843
16.8033
16.2953
15.7647
15.2152
14.6509
14.0755
13.4925
12.9054
12.3174
11.7314
11.1502
10.5763
10.012
9.45948
8.92043
8.39648
7.889
7.39913
6.9278
6.47575
6.04352
5.63148
5.23983
4.86862
4.51775
4.18702
3.87611
3.58458
3.31195
3.05762
2.82097
2.6013
2.39791
2.21002
2.03689
1.87772
1.73174
1.59815
1.47621
1.36515
1.26423
1.17274
1.09
1.01535
0.948161
0.887836
0.833814
0.785565
0.742592
0.704434
0.670661
0.640876
0.614715
0.591842
0.571955
0.554778
0.540064
0.527593
0.51717
0.508626
0.501815
0.496611
0.492906
0.490598
0.489805
0.493177
3511.8
-538.691
-252.13
-64.6648
-11.6962
2.38716
6.9919
9.15375
10.5871
11.7601
12.8113
13.7811
14.6798
15.5084
16.2652
16.9482
17.5559
18.087
18.541
18.9178
19.2183
19.4434
19.595
19.6751
19.6864
19.6317
19.5141
19.3373
19.1048
18.8205
18.4886
18.1129
17.6979
17.2476
16.7662
16.258
15.727
15.1773
14.6128
14.0371
13.4539
12.8665
12.2783
11.692
11.1106
10.5365
9.972
9.41921
8.87992
8.35573
7.848
7.35789
6.88631
6.43402
6.00154
5.58926
5.19736
4.8259
4.47479
4.14382
3.83266
3.5409
3.26803
3.01348
2.7766
2.55672
2.35311
2.16502
1.99168
1.83232
1.68614
1.55238
1.43025
1.31901
1.21792
1.12628
1.04338
0.968573
0.901234
0.840764
0.786601
0.738214
0.695107
0.656818
0.622916
0.593005
0.566719
0.543724
0.523716
0.506419
0.491585
0.478996
0.468455
0.459793
0.452864
0.447544
0.443722
0.441303
0.440381
0.443269
3511.8
-538.693
-252.134
-64.6707
-11.7039
2.37788
6.98102
9.1413
10.5732
11.7447
12.7944
13.7629
14.6603
15.4876
16.2433
16.9253
17.5319
18.062
18.5151
18.8911
19.1908
19.4152
19.5661
19.6457
19.6564
19.6012
19.4832
19.3059
19.0731
18.7885
18.4562
18.0803
17.665
17.2144
16.7328
16.2244
15.6933
15.1434
14.5787
14.0028
13.4194
12.8319
12.2435
11.6571
11.0755
10.5012
9.93653
9.38354
8.84406
8.31967
7.81174
7.32142
6.84963
6.39712
5.96442
5.55191
5.15978
4.7881
4.43676
4.10557
3.79418
3.5022
3.22911
2.97434
2.73725
2.51715
2.31333
2.12504
1.9515
1.79195
1.64558
1.51163
1.38933
1.27792
1.17667
1.08486
1.0018
0.926848
0.859362
0.798749
0.744448
0.695926
0.652688
0.614271
0.580244
0.55021
0.523804
0.500691
0.480565
0.463153
0.448205
0.435502
0.424849
0.416075
0.409034
0.403602
0.399671
0.397146
0.396103
0.398559
3511.8
-538.696
-252.138
-64.6764
-11.7111
2.36904
6.97066
9.12947
10.5599
11.73
12.7784
13.7457
14.6419
15.4681
16.2227
16.9037
17.5094
18.0386
18.4909
18.8662
19.1652
19.389
19.5394
19.6185
19.6287
19.5731
19.4548
19.2772
19.0441
18.7593
18.4268
18.0507
17.6352
17.1845
16.7028
16.1943
15.663
15.1131
14.5482
13.9723
13.3888
12.8012
12.2127
11.6261
11.0444
10.47
9.90522
9.35209
8.81246
8.28791
7.77981
7.28931
6.81734
6.36463
5.93174
5.51903
5.1267
4.7548
4.40326
4.07185
3.76025
3.46805
3.19475
2.93977
2.70247
2.48217
2.27815
2.08966
1.91593
1.75618
1.60963
1.4755
1.35302
1.24144
1.14003
1.04806
0.964848
0.889743
0.822112
0.76136
0.706922
0.658268
0.614902
0.576359
0.54221
0.512057
0.485534
0.462306
0.442068
0.424545
0.409488
0.396676
0.385915
0.377035
0.369888
0.364351
0.360316
0.35769
0.356535
0.358607
3511.8
-538.698
-252.142
-64.6819
-11.7181
2.36058
6.96075
9.11815
10.5472
11.716
12.7632
13.7293
14.6244
15.4495
16.2031
16.8832
17.4881
18.0166
18.4682
18.8428
19.1413
19.3646
19.5145
19.5932
19.6031
19.5472
19.4286
19.2508
19.0175
18.7326
18.4
18.0238
17.6083
17.1575
16.6758
16.1673
15.636
15.086
14.5211
13.9452
13.3617
12.774
12.1854
11.5989
11.0171
10.4426
9.87771
9.32448
8.78474
8.26007
7.75183
7.26118
6.78906
6.33619
5.90312
5.49023
5.09771
4.72562
4.37388
4.04227
3.73047
3.43807
3.16456
2.90938
2.67187
2.45137
2.24715
2.05847
1.88455
1.72461
1.57788
1.44357
1.32093
1.20918
1.1076
1.01547
0.932108
0.856855
0.789081
0.72819
0.673618
0.624835
0.581342
0.542677
0.508409
0.47814
0.451504
0.428165
0.407818
0.390188
0.375026
0.362111
0.351247
0.342265
0.335018
0.329382
0.325249
0.32253
0.32127
0.323
3511.79
-538.7
-252.146
-64.6871
-11.7248
2.35244
6.95121
9.10726
10.535
11.7026
12.7486
13.7136
14.6076
15.4318
16.1845
16.8638
17.4679
17.9957
18.4467
18.8208
19.1188
19.3417
19.4913
19.5696
19.5793
19.5232
19.4044
19.2266
18.9932
18.7082
18.3756
17.9994
17.5839
17.1332
16.6515
16.143
15.6118
15.0618
14.497
13.9211
13.3376
12.75
12.1614
11.5749
10.9931
10.4186
9.85365
9.30036
8.76055
8.23579
7.72745
7.23669
6.76443
6.31142
5.87821
5.46515
5.07246
4.7002
4.34827
4.01647
3.70448
3.41188
3.13818
2.88279
2.64509
2.4244
2.21998
2.03111
1.857
1.69688
1.54997
1.41548
1.29266
1.18075
1.07901
0.986722
0.903209
0.827809
0.759894
0.698866
0.644162
0.59525
0.551634
0.512848
0.478464
0.448082
0.421335
0.397889
0.377437
0.359704
0.344442
0.331428
0.320467
0.311389
0.304047
0.298317
0.294092
0.291284
0.289927
0.291354
3511.79
-538.703
-252.149
-64.6922
-11.7313
2.34453
6.94196
9.09671
10.5232
11.6896
12.7345
13.6984
14.5915
15.4147
16.1666
16.8451
17.4486
17.9758
18.4262
18.7999
19.0975
19.3201
19.4694
19.5475
19.557
19.5008
19.382
19.2041
18.9707
18.6858
18.3532
17.9771
17.5617
17.1111
16.6296
16.1212
15.5901
15.0403
14.4756
13.8998
13.3164
12.7289
12.1404
11.5539
10.9721
10.3976
9.83272
9.27942
8.73957
8.21475
7.70635
7.21549
6.74314
6.29001
5.85666
5.44346
5.05062
4.67819
4.32609
3.99411
3.68194
3.38916
3.11526
2.85968
2.62179
2.4009
2.1963
2.00723
1.83294
1.67263
1.52554
1.39088
1.26789
1.15581
1.05391
0.961468
0.877805
0.802259
0.734203
0.67304
0.618205
0.569166
0.525428
0.486525
0.452026
0.421533
0.39468
0.371129
0.350576
0.332745
0.317385
0.304277
0.293223
0.284054
0.276623
0.270805
0.266494
0.263604
0.262156
0.263315
3511.79
-538.705
-252.153
-64.6972
-11.7377
2.33682
6.93293
9.08642
10.5117
11.677
12.7208
13.6837
14.5758
15.3982
16.1493
16.8271
17.43
17.9567
18.4066
18.7799
19.0772
19.2995
19.4486
19.5267
19.5361
19.4799
19.3611
19.1832
18.95
18.6651
18.3327
17.9568
17.5416
17.0912
16.6098
16.1016
15.5707
15.0211
14.4566
13.881
13.2978
12.7104
12.122
11.5356
10.9539
10.3795
9.81463
9.26135
8.72149
8.19666
7.68821
7.1973
6.72486
6.27164
5.83818
5.42485
5.03187
4.6593
4.30704
3.97489
3.66254
3.36958
3.0955
2.83974
2.60165
2.38058
2.17578
1.98653
1.81205
1.65156
1.50429
1.36946
1.2463
1.13405
1.03199
0.939392
0.855578
0.779887
0.711691
0.650393
0.595428
0.546264
0.502405
0.463386
0.428776
0.398175
0.371216
0.347565
0.326914
0.308987
0.293535
0.280336
0.269195
0.259939
0.252424
0.246523
0.242132
0.239165
0.237634
0.238556
3511.79
-538.707
-252.156
-64.7021
-11.744
2.32923
6.92407
9.07632
10.5005
11.6646
12.7073
13.6693
14.5605
15.3821
16.1325
16.8096
17.4119
17.9382
18.3877
18.7607
19.0577
19.2799
19.4289
19.5069
19.5163
19.4601
19.3415
19.1637
18.9306
18.646
18.3138
17.9381
17.5231
17.073
16.5919
16.084
15.5534
15.004
14.4398
13.8644
13.2814
12.6942
12.106
11.5198
10.9382
10.3639
9.7991
9.24588
8.70606
8.18124
7.67277
7.18183
6.70933
6.25604
5.82248
5.40905
5.01595
4.64323
4.29082
3.95852
3.646
3.35287
3.07861
2.82266
2.58439
2.36313
2.15815
1.96871
1.79404
1.63338
1.48593
1.35092
1.22759
1.11518
1.01295
0.920201
0.836237
0.760401
0.692066
0.630633
0.575539
0.526252
0.482273
0.44314
0.408419
0.377712
0.350652
0.326902
0.306156
0.288137
0.272596
0.259311
0.248086
0.238749
0.231154
0.225176
0.22071
0.217671
0.216065
0.216778
3511.79
-538.709
-252.16
-64.7069
-11.7502
2.32172
6.9153
9.06634
10.4893
11.6524
12.6941
13.6551
14.5455
15.3663
16.116
16.7925
17.3943
17.9201
18.3694
18.7421
19.0389
19.261
19.41
19.488
19.4975
19.4414
19.3229
19.1454
18.9125
18.6282
18.2963
17.9209
17.5063
17.0565
16.5757
16.0682
15.5379
14.9888
14.4249
13.8498
13.2671
12.6801
12.0922
11.5061
10.9247
10.3506
9.7859
9.23277
8.69302
8.16823
7.65978
7.16883
6.6963
6.24295
5.80932
5.39579
5.00258
4.62974
4.27719
3.94474
3.63206
3.33876
3.06432
2.8082
2.56975
2.3483
2.14314
1.95351
1.77866
1.61781
1.47019
1.335
1.2115
1.09892
0.996539
0.903632
0.819517
0.743537
0.675061
0.613495
0.558272
0.508861
0.464765
0.425518
0.390689
0.359878
0.332718
0.308872
0.288034
0.269927
0.2543
0.240933
0.229628
0.220214
0.212544
0.206493
0.201958
0.198853
0.197177
0.197706
3511.79
-538.711
-252.163
-64.7119
-11.7565
2.31418
6.90655
9.05642
10.4783
11.6402
12.681
13.641
14.5306
15.3506
16.0997
16.7757
17.377
17.9024
18.3514
18.7239
19.0206
19.2426
19.3916
19.4697
19.4794
19.4235
19.3053
19.128
18.8955
18.6115
18.28
17.905
17.4907
17.0413
16.561
16.0538
15.5239
14.9753
14.4117
13.8369
13.2546
12.6679
12.0802
11.4944
10.9133
10.3393
9.77479
9.22179
8.68213
8.15742
7.64901
7.15807
6.68553
6.23214
5.79846
5.38485
4.99154
4.61859
4.26591
3.93331
3.62049
3.32702
3.05242
2.79612
2.55749
2.33586
2.13051
1.9407
1.76567
1.60464
1.45683
1.32147
1.1978
1.08506
0.982508
0.889444
0.805179
0.729053
0.660438
0.598738
0.543386
0.493853
0.449639
0.41028
0.375344
0.34443
0.317172
0.293233
0.272306
0.254112
0.238404
0.224957
0.213577
0.20409
0.19635
0.190232
0.185632
0.182466
0.180726
0.181095
3511.79
-538.714
-252.167
-64.7172
-11.7631
2.3064
6.89769
9.04645
10.4672
11.6281
12.6679
13.627
14.5157
15.3351
16.0835
16.759
17.3599
17.885
18.3337
18.7061
19.0027
19.2247
19.3738
19.4521
19.4619
19.4063
19.2884
19.1115
18.8793
18.5957
18.2646
17.8901
17.4763
17.0274
16.5475
16.0409
15.5114
14.9632
14.4
13.8257
13.2437
12.6574
12.07
11.4845
10.9036
10.3299
9.76557
9.21274
8.67321
8.14859
7.64026
7.14935
6.67682
6.22342
5.78969
5.37602
4.98263
4.60957
4.25677
3.92404
3.61107
3.31744
3.04268
2.7862
2.5474
2.32558
2.12005
1.93006
1.75484
1.59363
1.44565
1.31011
1.18627
1.07336
0.970645
0.877424
0.793007
0.716735
0.64798
0.586145
0.530666
0.48101
0.43668
0.397209
0.362167
0.331152
0.303798
0.279767
0.258753
0.240477
0.224689
0.211167
0.199714
0.190158
0.182352
0.176172
0.171512
0.16829
0.166492
0.166721
3511.79
-538.717
-252.172
-64.7237
-11.7709
2.29779
6.8884
9.03631
10.4561
11.616
12.6548
13.613
14.5009
15.3195
16.0673
16.7423
17.3428
17.8676
18.3161
18.6884
18.985
19.2071
19.3563
19.4348
19.4449
19.3896
19.2721
19.0956
18.8639
18.5808
18.2502
17.8762
17.4629
17.0145
16.5352
16.029
15.5001
14.9524
14.3897
13.8158
13.2343
12.6484
12.0614
11.4762
10.8956
10.3222
9.75807
9.20543
8.66607
8.14158
7.63333
7.14249
6.66999
6.21659
5.78283
5.36912
4.97565
4.6025
4.24959
3.91673
3.60362
3.30984
3.03491
2.77827
2.53929
2.31729
2.11158
1.9214
1.746
1.58461
1.43644
1.30073
1.17671
1.06363
0.960759
0.86738
0.782809
0.706391
0.637495
0.575526
0.519918
0.47014
0.425692
0.386111
0.350964
0.31985
0.292401
0.268281
0.247181
0.228824
0.21296
0.199366
0.187844
0.178223
0.170356
0.164116
0.159402
0.156128
0.154279
0.154386
3511.79
-538.724
-252.18
-64.7338
-11.7823
2.2865
6.87763
9.02552
10.4447
11.6037
12.6416
13.599
14.4861
15.304
16.0512
16.7256
17.3257
17.8503
18.2986
18.6708
18.9675
19.1897
19.3391
19.4178
19.4283
19.3734
19.2562
19.0803
18.8491
18.5665
18.2365
17.863
17.4504
17.0026
16.5238
16.0183
15.4899
14.9428
14.3806
13.8072
13.2262
12.6407
12.0542
11.4694
10.8891
10.3159
9.75212
9.19971
8.66054
8.13621
7.62808
7.13732
6.66487
6.21149
5.77772
5.36397
4.97044
4.59721
4.2442
3.91122
3.59797
3.30405
3.02896
2.77215
2.53299
2.31082
2.10492
1.91456
1.73898
1.5774
1.42906
1.29317
1.16897
1.05572
0.952681
0.859141
0.774417
0.697851
0.628813
0.566709
0.510972
0.461071
0.416508
0.376816
0.341564
0.310351
0.28281
0.258601
0.237419
0.218984
0.203046
0.189382
0.177795
0.168113
0.160187
0.153893
0.149128
0.145808
0.143912
0.143915
3511.77
-538.745
-252.2
-64.7538
-11.8032
2.26751
6.86222
9.01252
10.4324
11.5912
12.6284
13.585
14.4713
15.2885
16.0351
16.7091
17.3088
17.833
18.2813
18.6534
18.9501
19.1725
19.3221
19.4011
19.412
19.3575
19.2408
19.0654
18.8347
18.5528
18.2233
17.8506
17.4386
16.9914
16.5133
16.0084
15.4807
14.9341
14.3726
13.7998
13.2192
12.6343
12.0482
11.4638
10.8839
10.3111
9.74759
9.19544
8.65649
8.13234
7.62435
7.1337
6.66132
6.20797
5.77422
5.36044
4.96686
4.59355
4.24045
3.90736
3.59398
3.29992
3.02467
2.7677
2.52837
2.30602
2.09994
1.9094
1.73363
1.57186
1.42333
1.28726
1.16289
1.04947
0.946263
0.852562
0.767683
0.690967
0.621787
0.559546
0.50368
0.453656
0.408976
0.369175
0.333819
0.302508
0.274875
0.25058
0.229316
0.210805
0.194796
0.181065
0.169416
0.159675
0.151695
0.145351
0.14054
0.137177
0.13524
0.135153
3511.71
-538.843
-252.265
-64.7994
-11.8461
2.22986
6.83416
8.99251
10.4168
11.5773
12.6147
13.571
14.4568
15.2734
16.0194
16.6929
17.2922
17.8162
18.2643
18.6364
18.9331
19.1556
19.3055
19.3848
19.396
19.342
19.2258
19.0509
18.8209
18.5395
18.2108
17.8387
17.4274
16.9809
16.5035
15.9993
15.4723
14.9264
14.3655
13.7933
13.2133
12.6289
12.0433
11.4594
10.88
10.3075
9.74434
9.19249
8.65379
8.12984
7.62202
7.13149
6.65921
6.20592
5.77218
5.3584
4.96478
4.59141
4.23822
3.90503
3.59153
3.29732
3.02193
2.76479
2.52529
2.30276
2.0965
1.90577
1.72981
1.56787
1.41915
1.2829
1.15835
1.04475
0.941379
0.847515
0.762478
0.685612
0.616288
0.553911
0.497914
0.447767
0.40297
0.363059
0.3276
0.296192
0.268467
0.244087
0.222744
0.204159
0.188081
0.174286
0.162577
0.152782
0.144751
0.138361
0.133506
0.130107
0.128133
0.12797
3511.38
-539.333
-252.543
-64.9206
-11.9303
2.15727
6.77867
8.95387
10.3896
11.5564
12.5969
13.5546
14.4409
15.2576
16.0035
16.6767
17.2759
17.7997
18.2476
18.6197
18.9164
19.1391
19.2891
19.3687
19.3803
19.3267
19.211
19.0367
18.8072
18.5265
18.1985
17.8271
17.4165
16.9708
16.4942
15.9907
15.4644
14.9192
14.359
13.7875
13.2081
12.6244
12.0393
11.4559
10.877
10.3049
9.74215
9.19063
8.65222
8.12852
7.6209
7.13053
6.65836
6.20515
5.77146
5.35769
4.96405
4.59063
4.23737
3.90408
3.59047
3.29613
3.02059
2.76329
2.52362
2.30092
2.09448
1.90357
1.72743
1.56529
1.41639
1.27996
1.15523
1.04146
0.937916
0.843888
0.758693
0.681676
0.612207
0.549692
0.493565
0.443294
0.398381
0.35836
0.322798
0.291294
0.263479
0.239015
0.217594
0.198936
0.182791
0.168935
0.15717
0.147322
0.139245
0.132811
0.127919
0.124485
0.122481
0.122255
3509.6
-541.795
-253.902
-65.3642
-12.098
2.0417
6.68333
8.87782
10.3294
11.5071
12.5549
13.5174
14.4069
15.2258
15.9732
16.6476
17.2476
17.7722
18.2209
18.5938
18.8914
19.1149
19.2659
19.3465
19.3591
19.3065
19.1918
19.0185
18.7901
18.5105
18.1834
17.8131
17.4035
16.9589
16.4832
15.9807
15.4554
14.9111
14.3518
13.7811
13.2026
12.6196
12.0352
11.4525
10.8741
10.3026
9.74033
9.18925
8.65122
8.12784
7.6205
7.13036
6.65837
6.2053
5.7717
5.35798
4.96437
4.59094
4.23764
3.90429
3.59058
3.29613
3.02046
2.76303
2.52321
2.30034
2.09373
1.90264
1.72633
1.56401
1.41493
1.27832
1.15342
1.03948
0.935763
0.841573
0.756223
0.679055
0.609443
0.546791
0.490534
0.44014
0.395112
0.354982
0.319318
0.287719
0.259816
0.23527
0.213773
0.195046
0.178837
0.164922
0.153103
0.143207
0.135085
0.128613
0.123686
0.120223
0.118192
0.117914
3501.81
-552.635
-260.153
-67.3601
-12.5592
1.90942
6.58192
8.7637
10.2032
11.3733
12.417
13.378
14.2681
15.0889
15.8393
16.5177
17.1227
17.6532
18.1084
18.4884
18.7935
19.0247
19.1833
19.2713
19.291
19.2452
19.1368
18.9692
18.7461
18.4713
18.1486
17.7821
17.3761
16.9345
16.4617
15.9617
15.4386
14.8964
14.339
13.7699
13.1929
12.6113
12.0282
11.4466
10.8692
10.2986
9.73715
9.18679
8.64939
8.12658
7.61972
7.12999
6.65835
6.20556
5.7722
5.35865
4.96517
4.59183
4.23857
3.90522
3.59149
3.297
3.02125
2.76372
2.52379
2.3008
2.09405
1.90281
1.72634
1.56386
1.41462
1.27785
1.15278
1.03868
0.934806
0.840462
0.754961
0.677649
0.607899
0.545115
0.488732
0.43822
0.393079
0.352844
0.317081
0.285391
0.257402
0.232777
0.211207
0.192413
0.176142
0.162172
0.150303
0.140362
0.1322
0.125693
0.120736
0.117248
0.115196
0.11488
3497.15
-582.26
-280.513
-74.251
-13.8025
1.96462
6.71201
8.77226
10.0933
11.1641
12.125
13.0199
13.8614
14.6507
15.3852
16.0611
16.6747
17.2224
17.7016
18.1101
18.4468
18.7109
18.9029
19.0235
19.0744
19.0577
18.9761
18.8328
18.6312
18.3753
18.0691
17.7169
17.3228
16.8915
16.4272
15.9343
15.4171
14.8798
14.3263
13.7605
13.1862
12.6067
12.0254
11.4453
10.8692
10.2996
9.73886
9.18914
8.65226
8.12985
7.6233
7.1338
6.66232
6.20963
5.7763
5.36276
4.96923
4.5958
4.24243
3.90894
3.59505
3.30037
3.02443
2.76669
2.52654
2.30333
2.09635
1.90489
1.72818
1.56548
1.41602
1.27902
1.15375
1.03943
0.935365
0.84083
0.755148
0.677663
0.607748
0.544809
0.488281
0.437632
0.392364
0.35201
0.316138
0.284345
0.256263
0.231553
0.209905
0.19104
0.174705
0.160677
0.148757
0.138771
0.130571
0.12403
0.119045
0.115535
0.11347
0.113147
4057.8
-475.61
-264.773
-70.7204
-12.1419
2.90769
7.32659
9.32698
10.737
11.9556
13.0718
14.1046
15.0565
15.9262
16.7121
17.4129
18.0283
18.5584
19.004
19.3666
19.6481
19.8507
19.9772
20.0306
20.0142
19.9314
19.7859
19.5817
19.3226
19.0128
18.6563
18.2575
17.8204
17.3493
16.8485
16.3219
15.7737
15.2078
14.628
14.038
13.4412
12.8411
12.2406
11.6427
11.0502
10.4655
9.89075
9.32808
8.77923
8.24577
7.72903
7.23013
6.74999
6.28933
5.84869
5.42842
5.02872
4.64965
4.29111
3.9529
3.63469
3.33607
3.05655
2.79554
2.55243
2.32652
2.11709
1.92341
1.74471
1.58019
1.42909
1.29062
1.16401
1.0485
0.943357
0.847856
0.761306
0.683045
0.612436
0.548876
0.491794
0.440652
0.394945
0.354201
0.317983
0.285885
0.257532
0.232584
0.210727
0.191678
0.175185
0.161018
0.148979
0.138891
0.130604
0.123992
0.118949
0.115396
0.11332
0.1131
)
;

boundaryField
{
    xmin
    {
        type            calculated;
        value           uniform 0;
    }
    xmax
    {
        type            calculated;
        value           nonuniform List<scalar> 
100
(
3550.57
-416.158
-231.675
-61.879
-10.6224
2.54645
6.41338
8.16411
9.39827
10.4649
11.4419
12.346
13.1793
13.9407
14.6286
15.2422
15.781
16.2451
16.6354
16.953
17.1995
17.3771
17.4881
17.5351
17.5209
17.4487
17.3217
17.1432
16.9167
16.6458
16.3341
15.9853
15.603
15.191
14.7529
14.2923
13.8128
13.3177
12.8105
12.2944
11.7723
11.2473
10.7219
10.1989
9.68053
9.16896
8.66615
8.17388
7.6937
7.22698
6.77488
6.3384
5.91832
5.51529
5.12977
4.76207
4.41237
4.08071
3.76702
3.47112
3.19272
2.93146
2.6869
2.45855
2.24585
2.0482
1.86498
1.69554
1.53919
1.39527
1.26308
1.14195
1.03119
0.930153
0.83818
0.754647
0.678949
0.610504
0.548756
0.493177
0.443269
0.398559
0.358607
0.323
0.291354
0.263315
0.238556
0.216778
0.197706
0.181095
0.166721
0.154386
0.143915
0.135153
0.12797
0.122255
0.117914
0.11488
0.113147
0.1131
)
;
    }
    ymin
    {
        type            calculated;
        value           uniform 0;
    }
    ymax
    {
        type            calculated;
        value           nonuniform List<scalar> 
100
(
4057.8
-475.61
-264.773
-70.7204
-12.1419
2.90769
7.32659
9.32698
10.737
11.9556
13.0718
14.1046
15.0565
15.9262
16.7121
17.4129
18.0283
18.5584
19.004
19.3666
19.6481
19.8507
19.9772
20.0306
20.0142
19.9314
19.7859
19.5817
19.3226
19.0128
18.6563
18.2575
17.8204
17.3493
16.8485
16.3219
15.7737
15.2078
14.628
14.038
13.4412
12.8411
12.2406
11.6427
11.0502
10.4655
9.89075
9.32808
8.77923
8.24577
7.72903
7.23013
6.74999
6.28933
5.84869
5.42842
5.02872
4.64965
4.29111
3.9529
3.63469
3.33607
3.05655
2.79554
2.55243
2.32652
2.11709
1.92341
1.74471
1.58019
1.42909
1.29062
1.16401
1.0485
0.943357
0.847856
0.761306
0.683045
0.612436
0.548876
0.491794
0.440652
0.394945
0.354201
0.317983
0.285885
0.257532
0.232584
0.210727
0.191678
0.175185
0.161018
0.148979
0.138891
0.130604
0.123992
0.118949
0.115396
0.11332
0.1131
)
;
    }
    frontAndBack
    {
        type            empty;
    }
}


// ************************************************************************* //
