/*--------------------------------*- C++ -*----------------------------------*\
  =========                 |
  \\      /  F ield         | OpenFOAM: The Open Source CFD Toolbox
   \\    /   O peration     | Website:  https://openfoam.org
    \\  /    A nd           | Version:  10
     \\/     M anipulation  |
\*---------------------------------------------------------------------------*/
FoamFile
{
    format      ascii;
    class       volScalarField;
    location    "4";
    object      ddt0(T);
}
// * * * * * * * * * * * * * * * * * * * * * * * * * * * * * * * * * * * * * //

dimensions      [0 0 -1 1 0 0 0];

internalField   nonuniform List<scalar> 
10000
(
6855.22
3388.58
3349.44
3403.76
3420.49
3424.76
3425.93
3426.31
3426.46
3426.55
3426.61
3426.66
3426.71
3426.76
3426.8
3426.84
3426.87
3426.9
3426.93
3426.96
3426.98
3427
3427.02
3427.03
3427.04
3427.05
3427.06
3427.06
3427.06
3427.06
3427.06
3427.06
3427.05
3427.05
3427.04
3427.04
3427.03
3427.02
3427.01
3427
3426.99
3426.98
3426.97
3426.96
3426.95
3426.94
3426.93
3426.92
3426.91
3426.91
3426.9
3426.89
3426.88
3426.88
3426.87
3426.86
3426.86
3426.85
3426.85
3426.84
3426.84
3426.83
3426.83
3426.83
3426.83
3426.82
3426.82
3426.82
3426.82
3426.81
3426.81
3426.81
3426.81
3426.81
3426.81
3426.81
3426.81
3426.81
3426.8
3426.8
3426.8
3426.8
3426.8
3426.8
3426.8
3426.8
3426.8
3426.8
3426.8
3426.8
3426.8
3426.79
3426.79
3426.78
3426.7
3426.35
3424.64
3418.23
3424.28
4006.21
3914.43
-750.295
-678.478
-539.658
-496.934
-485.858
-482.836
-481.863
-481.456
-481.221
-481.042
-480.886
-480.744
-480.611
-480.488
-480.374
-480.269
-480.174
-480.088
-480.012
-479.945
-479.887
-479.837
-479.796
-479.763
-479.736
-479.717
-479.705
-479.698
-479.697
-479.701
-479.709
-479.721
-479.737
-479.756
-479.778
-479.802
-479.827
-479.855
-479.883
-479.912
-479.941
-479.971
-480.001
-480.03
-480.059
-480.087
-480.114
-480.141
-480.166
-480.191
-480.214
-480.236
-480.256
-480.276
-480.294
-480.311
-480.326
-480.341
-480.354
-480.367
-480.378
-480.389
-480.398
-480.407
-480.414
-480.421
-480.428
-480.433
-480.439
-480.443
-480.447
-480.451
-480.455
-480.458
-480.461
-480.463
-480.466
-480.468
-480.47
-480.472
-480.474
-480.476
-480.478
-480.48
-480.482
-480.484
-480.486
-480.488
-480.49
-480.493
-480.497
-480.506
-480.536
-480.663
-481.244
-483.872
-494.219
-518.128
-404.106
3856.92
-713.62
-528.842
-343.09
-285.561
-270.205
-265.908
-264.493
-263.88
-263.509
-263.22
-262.963
-262.727
-262.507
-262.302
-262.112
-261.938
-261.779
-261.636
-261.509
-261.396
-261.299
-261.216
-261.147
-261.091
-261.047
-261.015
-260.993
-260.982
-260.979
-260.985
-260.999
-261.019
-261.045
-261.077
-261.113
-261.152
-261.195
-261.24
-261.287
-261.335
-261.385
-261.434
-261.483
-261.532
-261.58
-261.627
-261.672
-261.716
-261.759
-261.799
-261.838
-261.874
-261.908
-261.941
-261.971
-261.999
-262.025
-262.05
-262.072
-262.093
-262.111
-262.129
-262.144
-262.159
-262.172
-262.183
-262.194
-262.203
-262.212
-262.22
-262.227
-262.233
-262.239
-262.244
-262.248
-262.253
-262.257
-262.261
-262.264
-262.267
-262.271
-262.274
-262.277
-262.28
-262.283
-262.287
-262.29
-262.294
-262.297
-262.302
-262.308
-262.318
-262.347
-262.444
-262.831
-264.479
-271.046
-290.056
-278.328
3897.69
-599.306
-370.019
-165.998
-102.153
-84.7274
-79.7173
-78.006
-77.2273
-76.7336
-76.3374
-75.9835
-75.6557
-75.3498
-75.065
-74.8014
-74.5593
-74.3388
-74.1401
-73.9629
-73.8069
-73.6715
-73.556
-73.4596
-73.3814
-73.3203
-73.2754
-73.2456
-73.2297
-73.2266
-73.2352
-73.2543
-73.2828
-73.3196
-73.3637
-73.4141
-73.4696
-73.5295
-73.5927
-73.6586
-73.7262
-73.7949
-73.864
-73.933
-74.0013
-74.0685
-74.1341
-74.1978
-74.2593
-74.3185
-74.375
-74.4288
-74.4798
-74.5279
-74.5731
-74.6154
-74.6548
-74.6915
-74.7254
-74.7567
-74.7854
-74.8118
-74.8359
-74.8579
-74.8778
-74.8959
-74.9123
-74.927
-74.9404
-74.9523
-74.9631
-74.9729
-74.9816
-74.9896
-74.9968
-75.0033
-75.0093
-75.0149
-75.0201
-75.025
-75.0297
-75.0342
-75.0387
-75.0431
-75.0475
-75.052
-75.0566
-75.0614
-75.0663
-75.0716
-75.0776
-75.0852
-75.0974
-75.1231
-75.1882
-75.3816
-76.0548
-78.555
-85.9166
-85.7376
3910.97
-563.578
-320.665
-110.548
-44.3175
-25.9798
-20.5862
-18.6744
-17.7588
-17.1519
-16.6536
-16.2044
-15.7871
-15.3973
-15.0342
-14.698
-14.3892
-14.108
-13.8545
-13.6284
-13.4293
-13.2565
-13.1091
-12.986
-12.8863
-12.8085
-12.7513
-12.7135
-12.6935
-12.6899
-12.7013
-12.7262
-12.7631
-12.8107
-12.8676
-12.9325
-13.0041
-13.0811
-13.1625
-13.2472
-13.3342
-13.4226
-13.5115
-13.6001
-13.6879
-13.7742
-13.8585
-13.9403
-14.0194
-14.0953
-14.1679
-14.237
-14.3025
-14.3643
-14.4223
-14.4766
-14.5272
-14.5742
-14.6178
-14.6579
-14.6948
-14.7287
-14.7596
-14.7878
-14.8134
-14.8366
-14.8575
-14.8765
-14.8936
-14.9089
-14.9228
-14.9352
-14.9465
-14.9566
-14.9658
-14.9742
-14.9819
-14.989
-14.9956
-15.0019
-15.0079
-15.0136
-15.0193
-15.0249
-15.0306
-15.0363
-15.0421
-15.0482
-15.0545
-15.0612
-15.0686
-15.0777
-15.0909
-15.1153
-15.167
-15.2818
-15.5564
-16.3116
-18.1301
-18.0351
3914.45
-554.239
-307.457
-95.388
-28.2663
-9.51247
-3.89484
-1.83371
-0.798546
-0.0854445
0.511572
1.05366
1.55843
2.03037
2.47011
2.87723
3.25123
3.59177
3.89881
4.1726
4.41371
4.62295
4.80135
4.95015
5.07073
5.16459
5.23334
5.27865
5.30225
5.30589
5.29135
5.26039
5.21475
5.15615
5.08625
5.00668
4.91897
4.8246
4.72497
4.62138
4.51503
4.40704
4.29843
4.19012
4.08292
3.97755
3.87464
3.77472
3.67823
3.58555
3.49695
3.41264
3.33278
3.25744
3.18666
3.12043
3.05869
3.00134
2.94826
2.8993
2.85429
2.81304
2.77535
2.74101
2.70981
2.68154
2.65597
2.63289
2.61209
2.59336
2.57652
2.56135
2.54769
2.53535
2.52416
2.51398
2.50465
2.49604
2.48801
2.48044
2.47321
2.46624
2.4594
2.45263
2.44583
2.43894
2.43188
2.4246
2.41701
2.40901
2.40036
2.39039
2.3771
2.35514
2.31249
2.22815
2.07522
1.82757
1.58218
1.90913
3915.43
-551.656
-303.728
-90.9917
-23.4991
-4.52356
1.24784
3.43254
4.57703
5.39146
6.08398
6.71641
7.3064
7.8583
8.3726
8.84872
9.28606
9.68422
10.0431
10.3631
10.6448
10.8892
11.0974
11.2709
11.4113
11.5203
11.5999
11.652
11.6786
11.6817
11.6635
11.6261
11.5714
11.5015
11.4184
11.3239
11.22
11.1082
10.9903
10.8677
10.742
10.6144
10.4861
10.3582
10.2316
10.1072
9.98577
9.86788
9.75405
9.64472
9.54023
9.44081
9.34664
9.25782
9.17439
9.09632
9.02354
8.95595
8.8934
8.83571
8.78267
8.73407
8.68967
8.64922
8.61247
8.57917
8.54907
8.52189
8.49741
8.47538
8.45556
8.43773
8.42167
8.40718
8.39405
8.38211
8.37118
8.3611
8.35171
8.34287
8.33444
8.32631
8.31836
8.31048
8.30259
8.29458
8.28639
8.27794
8.26915
8.25995
8.25017
8.23943
8.22656
8.20813
8.17565
8.11325
8.00397
7.86509
7.87958
8.25581
3915.76
-550.802
-302.47
-89.4533
-21.7651
-2.64152
3.25334
5.54855
6.79588
7.70755
8.49243
9.2124
9.88499
10.5144
11.1009
11.6437
12.1423
12.596
13.0049
13.3693
13.69
13.968
14.2046
14.4015
14.5606
14.6838
14.7733
14.8313
14.8601
14.8622
14.8398
14.7954
14.7312
14.6498
14.5531
14.4436
14.3231
14.1939
14.0576
13.916
13.7709
13.6237
13.4757
13.3283
13.1824
13.0391
12.8992
12.7635
12.6324
12.5065
12.3863
12.2719
12.1635
12.0613
11.9653
11.8755
11.7918
11.7141
11.6421
11.5758
11.5148
11.4589
11.4079
11.3614
11.3192
11.2809
11.2463
11.2151
11.187
11.1617
11.139
11.1185
11.1001
11.0835
11.0685
11.0548
11.0423
11.0308
11.0201
11.0101
11.0005
10.9913
10.9822
10.9733
10.9644
10.9553
10.9461
10.9366
10.9267
10.9163
10.9054
10.8938
10.8809
10.8649
10.8405
10.7956
10.7105
10.5825
10.5551
11.003
3915.9
-550.429
-301.901
-88.723
-20.8993
-1.65625
4.34817
6.74639
8.09171
9.09689
9.97083
10.7753
11.5276
12.2316
12.8876
13.4947
14.052
14.5591
15.0159
15.4227
15.7805
16.0904
16.3539
16.5729
16.7493
16.8855
16.9839
17.0469
17.0772
17.0774
17.0502
16.9982
16.9242
16.8308
16.7204
16.5954
16.4584
16.3115
16.1567
15.9962
15.8316
15.6648
15.4973
15.3303
15.1652
15.0031
14.8449
14.6914
14.5432
14.401
14.265
14.1358
14.0133
13.8979
13.7895
13.6881
13.5935
13.5058
13.4246
13.3497
13.2808
13.2178
13.1602
13.1077
13.0601
13.0169
12.9779
12.9427
12.911
12.8825
12.8569
12.8339
12.8132
12.7945
12.7776
12.7623
12.7483
12.7354
12.7235
12.7122
12.7016
12.6913
12.6813
12.6714
12.6615
12.6515
12.6413
12.6307
12.6198
12.6084
12.5965
12.5838
12.5704
12.5552
12.5354
12.502
12.4329
12.2972
12.1804
12.7586
3915.98
-550.202
-301.541
-88.2404
-20.3034
-0.953435
5.15289
7.64882
9.0879
10.1828
11.1423
12.0279
12.8567
13.6324
14.355
15.0234
15.6369
16.1948
16.6971
17.1442
17.5371
17.877
18.1657
18.4051
18.5975
18.7455
18.8515
18.9186
18.9494
18.947
18.9143
18.8543
18.7699
18.6641
18.5395
18.399
18.2452
18.0804
17.9072
17.7275
17.5436
17.3572
17.1701
16.9837
16.7996
16.6187
16.4423
16.2712
16.1061
15.9475
15.7961
15.6521
15.5158
15.3872
15.2665
15.1536
15.0484
14.9507
14.8604
14.777
14.7005
14.6303
14.5662
14.5079
14.4549
14.4069
14.3636
14.3245
14.2893
14.2576
14.2292
14.2036
14.1807
14.16
14.1413
14.1244
14.1089
14.0948
14.0816
14.0693
14.0576
14.0463
14.0354
14.0246
14.0139
14.003
13.9919
13.9804
13.9686
13.9562
13.9433
13.9297
13.9153
13.9
13.8821
13.8551
13.7965
13.6527
13.4474
14.184
3916.04
-550.024
-301.251
-87.8435
-19.8031
-0.353493
5.84927
8.43831
9.96697
11.1477
12.1891
13.1522
14.054
14.898
15.6839
16.4108
17.0775
17.6836
18.2289
18.7139
19.1397
19.5076
19.8196
20.0778
20.2847
20.443
20.5556
20.6255
20.6559
20.6501
20.6112
20.5425
20.4472
20.3285
20.1895
20.0332
19.8623
19.6796
19.4877
19.289
19.0856
18.8797
18.6731
18.4675
18.2643
18.0649
17.8704
17.6818
17.4999
17.3253
17.1585
17
16.8499
16.7084
16.5756
16.4513
16.3356
16.2281
16.1287
16.037
15.9528
15.8757
15.8053
15.7411
15.6829
15.6302
15.5826
15.5396
15.501
15.4662
15.435
15.407
15.3819
15.3593
15.3388
15.3203
15.3035
15.2881
15.2738
15.2604
15.2477
15.2356
15.2238
15.2123
15.2007
15.189
15.1771
15.1649
15.1522
15.139
15.1252
15.1107
15.0955
15.0795
15.062
15.0384
14.9866
14.8374
14.5547
15.4472
3916.09
-549.866
-300.992
-87.4843
-19.3472
0.196775
6.49113
9.16877
10.7827
12.0452
13.1644
14.2012
15.1723
16.081
16.927
17.709
18.426
19.0772
19.6629
20.1833
20.6397
21.0335
21.3669
21.6421
21.8618
22.029
22.1467
22.2184
22.2474
22.2372
22.1914
22.1133
22.0066
21.8747
21.7209
21.5483
21.3602
21.1595
20.9489
20.731
20.5083
20.2829
20.0569
19.832
19.61
19.3922
19.1798
18.9739
18.7753
18.5848
18.4029
18.23
18.0663
17.9121
17.7673
17.6319
17.5057
17.3886
17.2803
17.1805
17.0888
17.0048
16.9281
16.8583
16.7949
16.7375
16.6857
16.639
16.597
16.5592
16.5253
16.4949
16.4677
16.4431
16.421
16.401
16.3829
16.3662
16.3508
16.3365
16.323
16.31
16.2975
16.2852
16.2729
16.2606
16.248
16.2351
16.2217
16.2078
16.1932
16.1779
16.1619
16.1452
16.1276
16.1055
16.0584
15.9067
15.5612
16.5894
3916.14
-549.72
-300.75
-87.1493
-18.9206
0.712586
7.09374
9.85536
11.5502
12.89
14.0828
15.1893
16.2258
17.1955
18.0979
18.9316
19.6956
20.3891
21.0122
21.5654
22.0499
22.4674
22.8201
23.1104
23.3412
23.5158
23.6374
23.7096
23.7361
23.7207
23.6671
23.579
23.4603
23.3147
23.1456
22.9567
22.7512
22.5322
22.3028
22.0657
21.8236
21.5788
21.3335
21.0896
20.8488
20.6128
20.3827
20.1597
19.9447
19.7385
19.5416
19.3545
19.1774
19.0106
18.854
18.7076
18.5713
18.4447
18.3277
18.2198
18.1207
18.03
17.9471
17.8717
17.8033
17.7414
17.6854
17.6351
17.5897
17.5491
17.5126
17.4798
17.4505
17.4241
17.4004
17.379
17.3595
17.3418
17.3254
17.3102
17.2958
17.2821
17.2689
17.256
17.2431
17.2302
17.217
17.2035
17.1896
17.175
17.1599
17.1439
17.1273
17.11
17.0919
17.0705
17.0267
16.8748
16.4833
17.6189
3916.19
-549.583
-300.523
-86.8346
-18.5197
1.19773
7.66078
10.5016
12.2726
13.6853
14.9473
16.1191
17.2169
18.2437
19.1988
20.0807
20.8883
21.6209
22.2786
22.8618
23.372
23.8108
24.1806
24.4841
24.7243
24.9046
25.0287
25.1002
25.1232
25.1015
25.0393
24.9405
24.8093
24.6494
24.4648
24.2592
24.036
23.7987
23.5505
23.2942
23.0328
22.7686
22.5041
22.2413
21.982
21.7278
21.4802
21.2403
21.0091
20.7874
20.5758
20.3747
20.1845
20.0053
19.8371
19.6799
19.5335
19.3977
19.272
19.1563
19.0499
18.9526
18.8637
18.7829
18.7095
18.6431
18.5832
18.5292
18.4807
18.4371
18.3981
18.3631
18.3318
18.3037
18.2784
18.2556
18.2349
18.2161
18.1988
18.1827
18.1676
18.1533
18.1395
18.126
18.1126
18.0992
18.0856
18.0717
18.0572
18.0423
18.0266
18.0102
17.993
17.9752
17.9567
17.9357
17.8942
17.744
17.323
18.5357
3916.23
-549.455
-300.311
-86.5397
-18.1439
1.65264
8.1925
11.1076
12.9499
14.4307
15.7574
16.9902
18.1451
19.2249
20.2288
21.1553
22.0031
22.7715
23.4606
24.0711
24.6043
25.062
25.4468
25.7615
26.0093
26.1938
26.3188
26.3884
26.4066
26.3778
26.3062
26.1961
26.0517
25.8772
25.6766
25.454
25.213
24.9573
24.6901
24.4147
24.134
23.8506
23.567
23.2854
23.0077
22.7356
22.4707
22.2141
21.9669
21.73
21.5039
21.2891
21.0859
20.8946
20.715
20.5472
20.3909
20.246
20.112
19.9885
19.8751
19.7712
19.6765
19.5903
19.5121
19.4414
19.3775
19.3201
19.2684
19.2221
19.1806
19.1434
19.1101
19.0803
19.0535
19.0294
19.0076
18.9878
18.9696
18.9528
18.9371
18.9221
18.9078
18.8939
18.8801
18.8663
18.8524
18.8381
18.8233
18.808
18.7921
18.7753
18.7578
18.7395
18.7208
18.6999
18.6603
18.5132
18.0778
19.3386
3916.27
-549.336
-300.113
-86.2647
-17.7934
2.07686
8.68833
11.6725
13.5812
15.1253
16.512
17.8013
19.0089
20.1376
21.1864
22.1537
23.0381
23.8391
24.5567
25.1915
25.745
26.2193
26.6168
26.9406
27.1942
27.3812
27.5058
27.5721
27.5845
27.5476
27.4657
27.3435
27.1854
26.9958
26.779
26.5391
26.2801
26.0058
25.7197
25.4251
25.1252
24.8227
24.5202
24.22
23.9241
23.6344
23.3524
23.0794
22.8164
22.5645
22.3241
22.0958
21.88
21.6767
21.486
21.3078
21.1419
20.988
20.8457
20.7147
20.5943
20.4842
20.3837
20.2923
20.2094
20.1345
20.0668
20.0059
19.9512
19.9022
19.8583
19.819
19.7839
19.7524
19.7242
19.6989
19.676
19.6553
19.6363
19.6188
19.6025
19.5871
19.5723
19.558
19.5439
19.5298
19.5156
19.5012
19.4862
19.4707
19.4546
19.4377
19.4199
19.4015
19.3825
19.3617
19.3237
19.1812
18.7443
20.0268
3916.31
-549.226
-299.93
-86.0101
-17.4687
2.46985
9.14761
12.1957
14.1657
15.7682
17.2101
18.5513
19.8073
20.9806
22.0703
23.0746
23.9922
24.8224
25.5652
26.2215
26.7927
27.281
27.689
28.0199
28.2774
28.4654
28.588
28.6498
28.6553
28.6092
28.5163
28.3814
28.209
28.0038
27.7704
27.513
27.2359
26.9429
26.6379
26.3242
26.0051
25.6836
25.3624
25.0438
24.73
24.4228
24.124
23.8348
23.5564
23.2897
23.0353
22.7938
22.5655
22.3505
22.1489
21.9605
21.7852
21.6226
21.4723
21.3339
21.2068
21.0905
20.9844
20.8879
20.8005
20.7213
20.65
20.5858
20.5282
20.4765
20.4303
20.389
20.3521
20.3191
20.2895
20.263
20.2391
20.2175
20.1978
20.1797
20.1628
20.147
20.1319
20.1173
20.103
20.0888
20.0744
20.0598
20.0449
20.0293
20.0131
19.9962
19.9784
19.9599
19.9409
19.9203
19.8838
19.747
19.3193
20.6005
3916.34
-549.125
-299.761
-85.7759
-17.1702
2.83126
9.56993
12.6767
14.7029
16.3588
17.8511
19.2395
20.5395
21.7532
22.8798
23.9173
24.8644
25.7205
26.4855
27.1603
27.7466
28.2464
28.6627
28.9987
29.2583
29.4455
29.5648
29.6208
29.6183
29.5622
29.4574
29.309
29.1218
28.9007
28.6503
28.3753
28.0798
27.7682
27.4441
27.1114
26.7733
26.433
26.0932
25.7564
25.4249
25.1006
24.7852
24.4801
24.1865
23.9053
23.6372
23.3828
23.1422
22.9158
22.7036
22.5053
22.3207
22.1496
21.9915
21.8459
21.7122
21.5899
21.4784
21.377
21.285
21.2019
21.127
21.0595
20.9991
20.9449
20.8964
20.8532
20.8145
20.78
20.7492
20.7216
20.6968
20.6744
20.654
20.6353
20.6181
20.6019
20.5865
20.5717
20.5572
20.5429
20.5286
20.514
20.4991
20.4836
20.4675
20.4507
20.433
20.4147
20.3958
20.3755
20.3404
20.2104
19.8004
21.061
3916.37
-549.032
-299.608
-85.5623
-16.8978
3.16099
9.95516
13.1154
15.1925
16.8969
18.4349
19.8659
21.2053
22.4553
23.6147
24.6817
25.6548
26.5334
27.3175
28.008
28.6066
29.1156
29.5379
29.877
30.1369
30.3218
30.4363
30.4852
30.4736
30.4065
30.2892
30.1267
29.9242
29.6867
29.4191
29.1262
28.8123
28.4819
28.139
27.7873
27.4303
27.0713
26.7132
26.3584
26.0095
25.6683
25.3366
25.016
24.7074
24.4121
24.1305
23.8634
23.611
23.3734
23.1507
22.9428
22.7493
22.5698
22.4041
22.2515
22.1114
21.9833
21.8664
21.7602
21.6639
21.5769
21.4985
21.428
21.3648
21.3081
21.2575
21.2124
21.1721
21.1362
21.1042
21.0755
21.0498
21.0267
21.0057
20.9866
20.9689
20.9524
20.9368
20.9219
20.9074
20.8931
20.8788
20.8644
20.8496
20.8343
20.8185
20.8019
20.7845
20.7664
20.7478
20.7279
20.6944
20.5722
20.186
21.4104
3916.4
-548.949
-299.469
-85.3691
-16.6514
3.45922
10.3035
13.5119
15.635
17.3828
18.9617
20.4308
21.8053
23.0874
24.2757
25.3684
26.3639
27.2617
28.0618
28.7652
29.3735
29.8893
30.3155
30.6558
30.9141
31.0951
31.2034
31.2441
31.2224
31.1435
31.0128
30.8357
30.6174
30.3632
30.0781
29.7671
29.4348
29.0856
28.7238
28.3533
27.9776
27.6001
27.2238
26.8514
26.4853
26.1275
25.7799
25.4439
25.1208
24.8116
24.5169
24.2374
23.9734
23.725
23.4921
23.2747
23.0725
22.885
22.7118
22.5524
22.4061
22.2723
22.1503
22.0394
21.939
21.8482
21.7664
21.6929
21.627
21.568
21.5154
21.4684
21.4266
21.3893
21.3561
21.3265
21.3
21.2762
21.2547
21.2351
21.2171
21.2004
21.1847
21.1698
21.1553
21.1411
21.127
21.1127
21.0982
21.0832
21.0677
21.0515
21.0345
21.0169
20.9987
20.9793
20.9475
20.8337
20.4758
21.6517
3916.43
-548.874
-299.344
-85.196
-16.4306
3.7264
10.6155
13.8669
16.0309
17.8174
19.4324
20.9351
22.3404
23.6505
24.8638
25.9785
26.9931
27.9068
28.7199
29.4334
30.0489
30.5691
30.9971
31.3366
31.5918
31.7673
31.8682
31.8995
31.8666
31.775
31.6303
31.4379
31.2034
30.9322
30.6294
30.3002
29.9494
29.5815
29.2009
28.8116
28.4175
28.0217
27.6276
27.2378
26.8548
26.4808
26.1175
25.7665
25.4292
25.1064
24.7989
24.5074
24.232
23.973
23.7303
23.5037
23.2929
23.0976
22.9172
22.7512
22.5989
22.4596
22.3327
22.2173
22.1128
22.0184
21.9333
21.8569
21.7884
21.7272
21.6725
21.6239
21.5805
21.542
21.5077
21.4771
21.4499
21.4255
21.4035
21.3835
21.3653
21.3485
21.3327
21.3178
21.3034
21.2894
21.2755
21.2615
21.2473
21.2328
21.2177
21.202
21.1856
21.1685
21.1509
21.1322
21.102
20.9971
20.6703
21.7887
3916.45
-548.808
-299.234
-85.0426
-16.2349
3.96324
10.892
14.1813
16.3813
18.2017
19.8483
21.3801
22.812
24.146
25.3806
26.5137
27.544
28.4706
29.2938
30.0146
30.6349
31.1573
31.585
31.9218
32.1722
32.3409
32.433
32.4538
32.4089
32.3038
32.1444
31.9364
31.6853
31.3967
31.0761
30.7286
30.3592
29.9726
29.5734
29.1656
28.7531
28.3394
27.9277
27.5208
27.1213
26.7313
26.3527
25.9871
25.6358
25.2998
24.9799
24.6766
24.3902
24.1209
23.8686
23.6331
23.4141
23.2112
23.0238
22.8514
22.6933
22.5487
22.4169
22.2972
22.1887
22.0908
22.0026
21.9234
21.8525
21.7891
21.7325
21.6822
21.6374
21.5976
21.5623
21.5309
21.5029
21.478
21.4555
21.4353
21.4169
21.3999
21.3842
21.3693
21.3551
21.3413
21.3277
21.3141
21.3004
21.2863
21.2718
21.2567
21.241
21.2246
21.2076
21.1896
21.1614
21.0655
20.7712
21.826
3916.47
-548.75
-299.137
-84.9082
-16.0634
4.17063
11.134
14.4563
16.6875
18.5371
20.2109
21.7676
23.2221
24.5761
25.8282
26.9763
28.019
28.9555
29.786
30.5116
31.1343
31.6567
32.0821
32.4146
32.6587
32.8191
32.9012
32.9105
32.8526
32.7334
32.5588
32.3345
32.0665
31.7604
31.4217
31.0559
30.6679
30.2628
29.8451
29.419
28.9884
28.557
28.128
27.7044
27.2886
26.883
26.4895
26.1096
25.7448
25.3959
25.0639
24.7492
24.4521
24.1728
23.9112
23.667
23.4401
23.2298
23.0357
22.8571
22.6933
22.5436
22.4071
22.2832
22.171
22.0697
21.9785
21.8966
21.8233
21.7578
21.6994
21.6475
21.6013
21.5604
21.5241
21.4919
21.4633
21.4378
21.415
21.3945
21.376
21.359
21.3433
21.3285
21.3146
21.3011
21.2878
21.2747
21.2614
21.2479
21.234
21.2196
21.2046
21.189
21.1729
21.1558
21.1294
21.0426
20.7809
21.7686
3916.48
-548.7
-299.054
-84.7921
-15.9154
4.34966
11.3427
14.6933
16.9511
18.8255
20.5221
22.0996
23.5727
24.9431
26.2092
27.369
28.421
29.3644
30.1996
30.9275
31.5503
32.0706
32.492
32.8185
33.0547
33.2056
33.2767
33.2735
33.2019
33.0678
32.8774
32.6366
32.3513
32.0274
31.6707
31.2865
30.8801
30.4566
30.0205
29.5763
29.1279
28.6791
28.2332
27.7931
27.3615
26.9407
26.5326
26.1388
25.7608
25.3994
25.0556
24.7298
24.4223
24.1333
23.8627
23.6103
23.3756
23.1582
22.9576
22.773
22.6037
22.4491
22.3081
22.1802
22.0643
21.9598
21.8656
21.7812
21.7056
21.6381
21.578
21.5245
21.4771
21.4351
21.3979
21.3649
21.3357
21.3098
21.2866
21.2659
21.2472
21.2303
21.2146
21.2001
21.1864
21.1732
21.1604
21.1478
21.1351
21.1222
21.1091
21.0954
21.0812
21.0665
21.0512
21.0351
21.0106
20.9327
20.7029
21.6219
3916.5
-548.658
-298.983
-84.6936
-15.7897
4.50155
11.5197
14.8939
17.1739
19.0689
20.7842
22.3786
23.8665
25.2497
26.5265
27.6948
28.7531
29.7008
30.538
31.2659
31.8866
32.403
32.8185
33.1375
33.3645
33.5047
33.5636
33.5471
33.461
33.3116
33.1049
32.8472
32.5444
32.2027
31.8278
31.4253
31.0006
30.5588
30.1046
29.6425
29.1767
28.7108
28.2483
27.7921
27.3451
26.9094
26.4871
26.0799
25.689
25.3155
24.9602
24.6237
24.3062
24.0079
23.7285
23.468
23.2259
23.0017
22.7947
22.6044
22.4299
22.2704
22.1252
21.9933
21.874
21.7663
21.6694
21.5824
21.5047
21.4352
21.3735
21.3186
21.2699
21.2269
21.1888
21.1551
21.1254
21.099
21.0756
21.0547
21.036
21.019
21.0035
20.9892
20.9758
20.9631
20.9507
20.9386
20.9266
20.9144
20.902
20.8891
20.8758
20.862
20.8478
20.8326
20.8101
20.7407
20.5413
21.3919
3916.51
-548.623
-298.924
-84.6116
-15.6853
4.62765
11.6664
15.06
17.358
19.2694
20.9996
22.6071
24.1063
25.4989
26.7831
27.957
29.0189
29.9681
30.805
31.5308
32.1475
32.658
33.0661
33.376
33.5926
33.721
33.7669
33.7362
33.6351
33.4697
33.2464
32.9715
32.6511
32.2915
31.8984
31.4777
31.0348
30.5749
30.1029
29.6233
29.1403
28.6576
28.1789
27.7071
27.245
26.7948
26.3587
25.9384
25.535
25.1498
24.7835
24.4366
24.1094
23.802
23.5143
23.246
22.9967
22.7658
22.5528
22.357
22.1774
22.0134
21.864
21.7284
21.6057
21.495
21.3954
21.3061
21.2262
21.155
21.0916
21.0353
20.9855
20.9415
20.9026
20.8683
20.838
20.8113
20.7876
20.7666
20.7478
20.7309
20.7156
20.7016
20.6885
20.6761
20.6643
20.6528
20.6414
20.63
20.6183
20.6064
20.594
20.5812
20.568
20.5539
20.5334
20.4719
20.301
21.0848
3916.52
-548.594
-298.877
-84.5453
-15.6009
4.7294
11.7845
15.1934
17.5054
19.4295
21.1709
22.7879
24.295
25.6939
26.9826
28.1592
29.2221
30.1705
31.0048
31.7263
32.3371
32.8403
33.2394
33.539
33.7439
33.8595
33.8916
33.8461
33.7293
33.5476
33.3074
33.015
32.6769
32.2993
31.8882
31.4494
30.9885
30.5108
30.0212
29.5243
29.0245
28.5255
28.0309
27.5439
27.0671
26.6029
26.1534
25.7203
25.305
24.9084
24.5314
24.1745
23.8379
23.5218
23.226
22.9502
22.694
22.4568
22.238
22.0368
21.8524
21.684
21.5306
21.3914
21.2655
21.1519
21.0498
20.9582
20.8763
20.8033
20.7384
20.6808
20.6299
20.5849
20.5453
20.5103
20.4796
20.4525
20.4286
20.4075
20.3887
20.3719
20.3568
20.3431
20.3304
20.3185
20.3072
20.2963
20.2856
20.2749
20.2641
20.2531
20.2417
20.2299
20.2178
20.2049
20.1862
20.1322
19.9873
20.7069
3916.53
-548.572
-298.839
-84.4937
-15.5353
4.8083
11.8759
15.2962
17.6185
19.5517
21.3007
22.9241
24.436
25.8381
27.1286
28.3053
29.3666
30.312
31.1417
31.8571
32.4603
32.9545
33.3433
33.6314
33.8237
33.9256
33.9431
33.8822
33.7493
33.5509
33.2935
32.9836
32.6277
32.2321
31.803
31.3463
30.8676
30.3724
29.8655
29.3518
28.8355
28.3206
27.8106
27.3087
26.8177
26.3399
25.8775
25.4321
25.0051
24.5975
24.2102
23.8437
23.4981
23.1736
22.87
22.587
22.3242
22.0809
21.8565
21.6501
21.4611
21.2885
21.1313
20.9887
20.8597
20.7433
20.6387
20.545
20.4612
20.3865
20.3202
20.2614
20.2094
20.1635
20.1231
20.0876
20.0564
20.029
20.0049
19.9837
19.965
19.9483
19.9334
19.92
19.9076
19.8962
19.8855
19.8752
19.8652
19.8553
19.8454
19.8353
19.8249
19.8143
19.8032
19.7915
19.7747
19.7276
19.6062
20.2648
3916.53
-548.556
-298.812
-84.4558
-15.4872
4.86593
11.9423
15.3704
17.6996
19.6385
21.3921
23.0186
24.5325
25.9351
27.2247
28.3991
29.4567
30.397
31.2202
31.9277
32.5218
33.0056
33.383
33.6585
33.8372
33.9247
33.9269
33.8501
33.7007
33.4853
33.2106
32.8831
32.5094
32.096
31.6491
31.1747
30.6785
30.166
29.6423
29.1121
28.5797
28.0493
27.5243
27.008
26.5032
26.0122
25.5373
25.08
24.6418
24.2237
23.8264
23.4506
23.0964
22.7638
22.4527
22.1628
21.8936
21.6445
21.4147
21.2035
21.01
20.8334
20.6725
20.5266
20.3947
20.2757
20.1688
20.0729
19.9873
19.9111
19.8433
19.7834
19.7304
19.6837
19.6426
19.6065
19.5749
19.5473
19.523
19.5017
19.483
19.4665
19.4518
19.4387
19.4267
19.4158
19.4056
19.396
19.3867
19.3776
19.3686
19.3594
19.3501
19.3405
19.3306
19.3201
19.3051
19.2643
19.1637
19.7651
3916.54
-548.545
-298.794
-84.4305
-15.4553
4.90387
11.9856
15.4183
17.7511
19.6926
21.4478
23.0748
24.5878
25.9885
27.2748
28.4447
29.4966
30.4298
31.2448
31.943
32.5265
32.9988
33.3635
33.6255
33.7899
33.8623
33.8488
33.7556
33.5895
33.3569
33.0647
32.7197
32.3283
31.8972
31.4327
30.9409
30.4275
29.8981
29.3578
28.8115
28.2636
27.7181
27.1785
26.6483
26.1301
25.6264
25.1394
24.6707
24.2216
23.7934
23.3866
23.0018
22.6393
22.299
21.9808
21.6843
21.409
21.1542
20.9193
20.7035
20.5057
20.3252
20.1609
20.0119
19.8771
19.7556
19.6464
19.5486
19.4613
19.3835
19.3145
19.2534
19.1994
19.1519
19.1102
19.0736
19.0417
19.0137
18.9893
18.968
18.9493
18.9329
18.9185
18.9057
18.8941
18.8837
18.8741
18.8651
18.8565
18.8482
18.8401
18.8319
18.8236
18.8151
18.8063
18.797
18.7838
18.7487
18.6664
19.2145
3916.54
-548.539
-298.784
-84.4169
-15.4383
4.92375
12.0077
15.4419
17.7754
19.7167
21.4708
23.0956
24.6055
26.0019
27.2829
28.4463
29.4905
30.4151
31.2203
31.9077
32.4795
32.9391
33.2904
33.538
33.6874
33.7441
33.7144
33.6047
33.4215
33.1717
32.8621
32.4995
32.0906
31.642
31.1601
30.6511
30.1209
29.575
29.0187
28.4567
27.8936
27.3334
26.7798
26.2361
25.705
25.1891
24.6904
24.2107
23.7513
23.3132
22.8973
22.504
22.1335
21.7858
21.4607
21.1579
20.8768
20.6167
20.3769
20.1566
19.9548
19.7706
19.603
19.451
19.3135
19.1896
19.0783
18.9786
18.8896
18.8104
18.7401
18.6779
18.6231
18.5748
18.5325
18.4955
18.4631
18.4349
18.4104
18.389
18.3704
18.3542
18.34
18.3275
18.3163
18.3064
18.2973
18.289
18.2811
18.2736
18.2663
18.2591
18.2518
18.2444
18.2368
18.2287
18.2171
18.1871
18.1207
18.6196
3916.54
-548.538
-298.782
-84.4138
-15.4348
4.92717
12.0105
15.4435
17.775
19.7136
21.4641
23.0845
24.589
25.979
27.2527
28.4078
29.4429
30.3572
31.1514
31.8268
32.3858
32.8317
33.1687
33.4014
33.5352
33.5759
33.5297
33.4031
33.2028
32.9358
32.6087
32.2287
31.8024
31.3366
30.8377
30.3119
29.7652
29.2032
28.6312
28.0541
27.4763
26.9019
26.3347
25.778
25.2345
24.7067
24.1969
23.7066
23.2372
22.7898
22.3651
21.9636
21.5855
21.2308
20.8992
20.5903
20.3036
20.0385
19.794
19.5695
19.3638
19.1761
19.0053
18.8504
18.7104
18.5843
18.471
18.3695
18.2789
18.1983
18.1268
18.0636
18.0079
17.9589
17.916
17.8785
17.8458
17.8174
17.7927
17.7713
17.7528
17.7367
17.7227
17.7105
17.6998
17.6903
17.6818
17.6741
17.667
17.6602
17.6538
17.6475
17.6412
17.6348
17.6283
17.6214
17.6115
17.5861
17.5333
17.9868
3916.54
-548.541
-298.786
-84.4203
-15.4436
4.91573
11.9959
15.4251
17.7524
19.6859
21.4306
23.0445
24.5417
25.9235
27.1882
28.3334
29.3578
30.2607
31.0426
31.705
32.2503
32.6818
33.0038
33.221
33.3388
33.3632
33.3003
33.1567
32.9393
32.655
32.3107
31.9134
31.47
30.9873
30.4717
29.9295
29.3667
28.7891
28.2019
27.61
27.018
26.4299
25.8496
25.2803
24.7249
24.1859
23.6653
23.1648
22.6859
22.2296
21.7965
21.3872
21.0018
20.6404
20.3025
19.9879
19.696
19.4259
19.1771
18.9485
18.7391
18.5481
18.3743
18.2167
18.0743
17.946
17.8307
17.7276
17.6355
17.5536
17.481
17.4168
17.3603
17.3106
17.2671
17.2292
17.1962
17.1675
17.1427
17.1213
17.1028
17.0869
17.0731
17.0612
17.0509
17.0419
17.0339
17.0268
17.0203
17.0144
17.0087
17.0033
16.998
16.9927
16.9873
16.9815
16.9732
16.9519
16.9105
17.3226
3916.53
-548.547
-298.797
-84.4353
-15.4633
4.89101
11.9657
15.3891
17.7098
19.6363
21.3733
22.9788
24.4669
25.839
27.0931
28.2272
29.2397
30.1299
30.8986
31.547
32.0779
32.4944
32.8009
33.0022
33.1037
33.1115
33.0317
32.8712
32.6367
32.3353
31.9739
31.5596
31.0994
30.6001
30.0681
29.51
28.9316
28.3388
27.7368
27.1307
26.525
25.9238
25.3309
24.7496
24.1827
23.6328
23.1019
22.5917
22.1037
21.6388
21.1978
20.7811
20.3888
20.0209
19.6771
19.357
19.06
18.7854
18.5324
18.2999
18.0871
17.8929
17.7163
17.5561
17.4114
17.281
17.1639
17.0591
16.9657
16.8825
16.8088
16.7437
16.6864
16.6361
16.5921
16.5537
16.5204
16.4915
16.4666
16.4452
16.4267
16.4109
16.3974
16.3858
16.3758
16.3672
16.3598
16.3532
16.3474
16.3422
16.3373
16.3328
16.3284
16.3241
16.3198
16.3151
16.3083
16.2906
16.2588
16.633
3916.53
-548.557
-298.813
-84.4579
-15.4926
4.85456
11.9218
15.3373
17.6497
19.5673
21.2949
22.8904
24.368
25.7289
26.9713
28.093
29.0925
29.9692
30.7237
31.3576
31.8734
32.2744
32.565
32.7501
32.8351
32.8262
32.7296
32.5521
32.3007
31.9823
31.6041
31.1732
30.6965
30.1809
29.6331
29.0594
28.4659
27.8584
27.2422
26.6223
26.0034
25.3896
24.7845
24.1917
23.6138
23.0535
22.5128
21.9934
21.4967
21.0237
20.5751
20.1512
19.7524
19.3784
19.029
18.7037
18.402
18.123
17.8659
17.6298
17.4137
17.2165
17.0372
16.8746
16.7277
16.5954
16.4766
16.3703
16.2754
16.1911
16.1164
16.0504
15.9923
15.9414
15.8969
15.8581
15.8245
15.7954
15.7704
15.7489
15.7305
15.7148
15.7015
15.6902
15.6805
15.6723
15.6654
15.6594
15.6542
15.6496
15.6455
15.6418
15.6383
15.6349
15.6316
15.6281
15.6227
15.6081
15.5844
15.9241
3916.53
-548.569
-298.833
-84.487
-15.5304
4.80786
11.8659
15.2718
17.5743
19.4815
21.1983
22.7824
24.2482
25.5967
26.8263
27.9346
28.9202
29.7827
30.5225
31.1412
31.6414
32.0266
32.301
32.4697
32.5381
32.5125
32.3991
32.2048
31.9366
31.6016
31.2069
30.7596
30.2669
29.7355
29.1722
28.5835
27.9754
27.3537
26.7238
26.0907
25.4591
24.8331
24.2165
23.6126
23.0242
22.454
21.9039
21.3757
20.8708
20.39
19.9342
19.5036
19.0985
18.7187
18.364
18.0338
17.7275
17.4444
17.1836
16.944
16.7248
16.5248
16.3429
16.178
16.0291
15.8949
15.7744
15.6667
15.5705
15.4851
15.4094
15.3426
15.2838
15.2323
15.1873
15.1481
15.1142
15.0849
15.0598
15.0383
15.0199
15.0043
14.9912
14.9801
14.9708
14.963
14.9564
14.9509
14.9463
14.9424
14.939
14.9361
14.9334
14.931
14.9286
14.9261
14.922
14.9103
14.8932
15.2014
3916.52
-548.584
-298.858
-84.5219
-15.5755
4.75236
11.7997
15.1946
17.4857
19.3813
21.0859
22.6576
24.1105
25.4457
26.6615
27.7557
28.7268
29.5744
30.2989
30.902
31.3863
31.7554
32.0136
32.1658
32.2177
32.1754
32.0454
31.8345
31.5498
31.1984
30.7875
30.3243
29.8159
29.2693
28.6911
28.0878
27.4655
26.8301
26.1871
25.5413
24.8976
24.2599
23.6322
23.0178
22.4195
21.8398
21.2808
20.7443
20.2314
19.7433
19.2806
18.8437
18.4326
18.0474
17.6876
17.3528
17.0423
16.7552
16.4908
16.248
16.0259
15.8232
15.6389
15.4718
15.3209
15.185
15.063
14.9538
14.8565
14.77
14.6934
14.6258
14.5663
14.5142
14.4687
14.4292
14.395
14.3655
14.3402
14.3187
14.3003
14.2848
14.2718
14.261
14.2519
14.2445
14.2384
14.2334
14.2293
14.2259
14.2232
14.221
14.2191
14.2175
14.2161
14.2146
14.2117
14.2024
14.1907
14.4703
3916.52
-548.601
-298.886
-84.5615
-15.6267
4.68942
11.7248
15.1075
17.3862
19.2689
20.9605
22.5188
23.9578
25.279
26.4803
27.5598
28.5158
29.348
30.0569
30.6442
31.1125
31.4654
31.7072
31.8429
31.8784
31.8196
31.6732
31.446
31.1451
30.7777
30.3511
29.8724
29.3489
28.7874
28.1947
27.5774
26.9416
26.2931
25.6374
24.9795
24.3241
23.6754
23.0371
22.4126
21.8048
21.2161
20.6487
20.1042
19.5839
19.0888
18.6196
18.1767
17.7601
17.3696
17.0051
16.6659
16.3513
16.0606
15.7928
15.547
15.322
15.1168
14.9303
14.7612
14.6084
14.4708
14.3474
14.2369
14.1384
14.0509
13.9734
13.905
13.8449
13.7923
13.7464
13.7065
13.672
13.6423
13.6169
13.5952
13.5769
13.5615
13.5486
13.5379
13.5292
13.522
13.5163
13.5117
13.5081
13.5053
13.5032
13.5016
13.5005
13.4997
13.4991
13.4985
13.4967
13.4897
13.4823
13.736
3916.51
-548.62
-298.917
-84.6051
-15.683
4.62035
11.6428
15.0123
17.2775
19.1466
20.8243
22.3684
23.793
25.0995
26.2859
27.3502
28.2908
29.1073
29.8004
30.3716
30.8238
31.1604
31.386
31.5054
31.5246
31.4496
31.2871
31.0439
30.7272
30.3443
29.9023
29.4087
28.8704
28.2947
27.6881
27.0573
26.4084
25.7473
25.0796
24.4101
23.7436
23.0843
22.436
21.802
21.1851
20.5879
20.0125
19.4604
18.9331
18.4315
17.9562
17.5075
17.0856
16.6903
16.3213
15.9779
15.6596
15.3654
15.0944
14.8457
14.6181
14.4106
14.2218
14.0508
13.8963
13.7572
13.6324
13.5207
13.4211
13.3326
13.2543
13.1852
13.1245
13.0713
13.0249
12.9847
12.9499
12.92
12.8945
12.8728
12.8544
12.839
12.8263
12.8158
12.8072
12.8003
12.7949
12.7907
12.7875
12.7853
12.7837
12.7827
12.7822
12.7821
12.7823
12.7826
12.7819
12.7767
12.7729
13.0029
3916.5
-548.64
-298.951
-84.6519
-15.7433
4.54637
11.555
14.9106
17.1617
19.0165
20.6796
22.209
23.6187
24.91
26.0811
27.1299
28.0548
28.8556
29.5327
30.0879
30.524
30.8445
31.0539
31.1573
31.1604
31.0695
30.8912
30.6325
30.3005
29.9024
29.4457
28.9375
28.3851
27.7956
27.1757
26.532
25.8706
25.1975
24.5182
23.8377
23.1607
22.4913
21.8334
21.1904
20.565
19.9597
19.3767
18.8175
18.2836
17.7757
17.2946
16.8406
16.4137
16.0139
15.6406
15.2933
14.9714
14.674
14.4001
14.1486
13.9186
13.7088
13.518
13.3452
13.1891
13.0485
12.9224
12.8095
12.7089
12.6195
12.5404
12.4706
12.4093
12.3556
12.3088
12.2682
12.2332
12.2031
12.1774
12.1556
12.1372
12.1218
12.1091
12.0988
12.0904
12.0838
12.0786
12.0748
12.072
12.0701
12.0691
12.0686
12.0687
12.0693
12.0702
12.0712
12.0714
12.068
12.067
12.2754
3916.5
-548.661
-298.986
-84.7011
-15.8067
4.46863
11.4629
14.8039
17.0403
18.8803
20.5285
22.0428
23.4372
24.7132
25.8687
26.9018
27.811
28.5959
29.2572
29.7965
30.2166
30.5212
30.7147
30.8023
30.7897
30.6833
30.4897
30.2158
29.8689
29.4562
28.9852
28.463
27.8971
27.2944
26.6617
26.0056
25.3323
24.6478
23.9575
23.2665
22.5794
21.9006
21.2336
20.582
19.9485
19.3356
18.7455
18.1796
17.6394
17.1257
16.6391
16.1801
15.7485
15.3444
14.9671
14.6162
14.291
13.9905
13.7138
13.4598
13.2274
13.0155
12.8229
12.6483
12.4907
12.3487
12.2214
12.1074
12.0058
11.9156
11.8357
11.7653
11.7034
11.6492
11.602
11.5611
11.5257
11.4954
11.4696
11.4477
11.4292
11.4139
11.4012
11.391
11.3827
11.3763
11.3714
11.3678
11.3654
11.3639
11.3633
11.3633
11.364
11.3651
11.3666
11.3683
11.3694
11.3674
11.3686
11.5575
3916.49
-548.683
-299.022
-84.7522
-15.8724
4.38818
11.3676
14.6937
16.9151
18.74
20.3729
21.8719
23.2509
24.5113
25.6513
26.6687
27.5622
28.3313
28.9768
29.5003
29.9047
30.1937
30.3716
30.4438
30.4159
30.2944
30.0859
29.7973
29.4361
29.0093
28.5245
27.989
27.4101
26.7947
26.1498
25.4819
24.7973
24.1019
23.4012
22.7002
22.0037
21.3158
20.6403
19.9806
19.3395
18.7195
18.1225
17.5504
17.0042
16.4851
15.9934
15.5296
15.0937
14.6855
14.3045
13.9502
13.6218
13.3185
13.0391
12.7828
12.5482
12.3344
12.14
11.9638
11.8047
11.6615
11.533
11.418
11.3155
11.2245
11.1439
11.0728
11.0103
10.9557
10.9081
10.8668
10.8312
10.8007
10.7747
10.7526
10.7341
10.7188
10.7061
10.6959
10.6878
10.6815
10.6768
10.6735
10.6713
10.6702
10.6699
10.6704
10.6715
10.6731
10.6752
10.6775
10.6793
10.6786
10.6816
10.8527
3916.48
-548.705
-299.059
-84.8043
-15.9396
4.30599
11.2703
14.5812
16.7874
18.597
20.2147
21.6982
23.0617
24.3066
25.431
26.4329
27.3108
28.0643
28.6943
29.2023
29.5913
29.8649
30.0277
30.0849
30.0422
29.906
29.6831
29.3805
29.0054
28.5651
28.0672
27.5189
26.9275
26.3001
25.6435
24.9645
24.2691
23.5634
22.8528
22.1424
21.4369
20.7405
20.0569
19.3896
18.7413
18.1145
17.5113
16.9332
16.3815
15.8572
15.3608
14.8925
14.4525
14.0405
13.6561
13.2986
12.9672
12.6612
12.3794
12.1208
11.8843
11.6686
11.4726
11.2949
11.1345
10.99
10.8604
10.7444
10.6411
10.5493
10.468
10.3963
10.3333
10.2782
10.2303
10.1887
10.1528
10.122
10.0958
10.0736
10.0551
10.0396
10.027
10.0168
10.0088
10.0026
9.99809
9.99495
9.99303
9.99217
9.99221
9.99302
9.99451
9.99657
9.99911
10.0019
10.0044
10.0048
10.0092
10.164
3916.47
-548.728
-299.097
-84.8571
-16.0075
4.22294
11.1721
14.4678
16.6587
18.453
20.0553
21.5234
22.8716
24.1011
25.2101
26.1966
27.0591
27.7974
28.4121
28.905
29.279
29.5377
29.6858
29.7284
29.6714
29.5211
29.2844
28.9682
28.5798
28.1266
27.6161
27.0556
26.4523
25.8135
25.1459
24.4562
23.7507
23.0352
22.3152
21.596
20.882
20.1776
19.4865
18.812
18.1569
17.5238
16.9146
16.331
15.7741
15.245
14.7441
14.2717
13.8279
13.4123
13.0246
12.6641
12.3301
12.0215
11.7375
11.4768
11.2384
11.021
10.8234
10.6443
10.4826
10.337
10.2064
10.0895
9.98537
9.89282
9.8109
9.73865
9.67517
9.61964
9.57126
9.52933
9.49317
9.46218
9.43578
9.41347
9.39479
9.37931
9.36665
9.35648
9.34848
9.34239
9.33795
9.33496
9.33323
9.33258
9.33287
9.33398
9.33579
9.33821
9.34115
9.34444
9.34748
9.34879
9.35422
9.49423
3916.47
-548.751
-299.135
-84.9099
-16.0754
4.13983
11.0738
14.3543
16.5301
18.3091
19.8962
21.3492
22.6821
23.8965
24.9904
25.9618
26.8093
27.5326
28.1324
28.6107
28.9701
29.2144
29.3482
29.3768
29.306
29.1422
28.8922
28.563
28.162
27.6965
27.1739
26.6018
25.9873
25.3376
24.6596
23.9598
23.2446
22.5199
21.7912
21.0636
20.3417
19.6297
18.9315
18.2502
17.5889
16.9498
16.3351
15.7463
15.1846
14.6509
14.1459
13.6696
13.2222
12.8034
12.4127
12.0494
11.7128
11.4019
11.1157
10.8531
10.6129
10.3939
10.1949
10.0145
9.85163
9.70498
9.57338
9.45566
9.35072
9.25749
9.17496
9.10216
9.0382
8.98224
8.9335
8.89124
8.8548
8.82357
8.79698
8.77451
8.7557
8.74014
8.72742
8.71723
8.70924
8.70318
8.69882
8.69593
8.69432
8.69384
8.69433
8.69567
8.69774
8.70046
8.70373
8.70738
8.7109
8.71301
8.71922
8.84575
3916.46
-548.773
-299.172
-84.9624
-16.1429
4.05735
10.9763
14.2418
16.4026
18.1667
19.7388
21.1768
22.4949
23.6944
24.7735
25.7301
26.563
27.2718
27.8573
28.3213
28.6666
28.897
29.0172
29.0323
28.9482
28.7715
28.5088
28.1672
27.7541
27.2769
26.743
26.1598
25.5347
24.8747
24.1868
23.4776
22.7534
22.02
21.283
20.5475
19.8181
19.0991
18.3942
17.7067
17.0394
16.3948
15.7749
15.1812
14.6151
14.0772
13.5682
13.0884
12.6377
12.2158
11.8222
11.4563
11.1174
10.8043
10.5162
10.2518
10.0099
9.78945
9.58905
9.40748
9.24349
9.09584
8.96334
8.84482
8.73916
8.64528
8.56216
8.48885
8.42443
8.36806
8.31895
8.27637
8.23966
8.20818
8.18139
8.15875
8.1398
8.12412
8.11133
8.10108
8.09306
8.08701
8.08268
8.07985
8.07833
8.07796
8.07859
8.0801
8.08237
8.08532
8.08885
8.0928
8.09672
8.09948
8.10626
8.22051
3916.45
-548.795
-299.209
-85.0141
-16.2094
3.97612
10.8803
14.1311
16.2772
18.0266
19.5841
21.0075
22.311
23.4961
24.5608
25.5032
26.322
27.0167
27.5883
28.0386
28.3704
28.5875
28.6945
28.6967
28.6
28.4109
28.1362
27.7828
27.3583
26.87
26.3253
25.7317
25.0965
24.4269
23.7297
23.0115
22.2788
21.5372
20.7925
20.0496
19.3133
18.5877
17.8765
17.1831
16.5104
15.8606
15.2358
14.6377
14.0673
13.5255
13.0129
12.5298
12.0759
11.6512
11.255
10.8867
10.5456
10.2305
9.94051
9.67444
9.43108
9.20921
9.00755
8.82485
8.65983
8.51126
8.37792
8.25864
8.1523
8.0578
7.97414
7.90033
7.83546
7.7787
7.72924
7.68635
7.64935
7.61763
7.59062
7.5678
7.5487
7.53289
7.51999
7.50967
7.5016
7.49552
7.49118
7.48836
7.48689
7.48659
7.48731
7.48893
7.49135
7.49446
7.49818
7.50236
7.50659
7.5099
7.51707
7.62014
3916.44
-548.817
-299.245
-85.0646
-16.2744
3.89669
10.7865
14.0229
16.1546
17.8898
19.433
20.8423
22.1318
23.3028
24.3537
25.2823
26.0874
26.7687
27.327
27.7641
28.0829
28.2872
28.3817
28.3717
28.263
28.0622
27.7759
27.4115
26.9761
26.4772
25.9224
25.319
24.6743
23.9956
23.2897
22.5632
21.8224
21.0733
20.3213
19.5715
18.8287
18.0969
17.3799
16.6811
16.0032
15.3486
14.7193
14.117
13.5427
12.9973
12.4814
11.9951
11.5384
11.111
10.7124
10.3419
9.99867
9.68175
9.39005
9.12242
8.87766
8.6545
8.45168
8.26792
8.10194
7.9525
7.81838
7.6984
7.59141
7.49634
7.41215
7.33787
7.27258
7.21543
7.16562
7.12243
7.08516
7.05319
7.02596
7.00294
6.98367
6.96771
6.95469
6.94426
6.93611
6.92997
6.92559
6.92276
6.92129
6.92101
6.92177
6.92346
6.92596
6.92918
6.93303
6.93738
6.94184
6.94558
6.95299
7.04589
3916.44
-548.838
-299.28
-85.1138
-16.3376
3.81949
10.6953
13.9178
16.0357
17.757
19.2865
20.6821
21.958
23.1156
24.1531
25.0685
25.8605
26.5289
27.0744
27.499
27.8054
27.9977
28.0802
28.0585
27.9385
27.7265
27.4294
27.0545
26.6089
26.1001
25.5357
24.9231
24.2695
23.5823
22.8682
22.1338
21.3856
20.6293
19.8706
19.1144
18.3655
17.6279
16.9056
16.2017
15.519
14.8599
14.2265
13.6202
13.0423
12.4936
11.9745
11.4854
11.026
10.5962
10.1953
9.8228
9.47769
9.15904
8.86577
8.59671
8.35063
8.12629
7.92238
7.73764
7.57077
7.42052
7.28567
7.16502
7.05743
6.96181
6.87713
6.8024
6.7367
6.67919
6.62905
6.58554
6.548
6.51578
6.48833
6.46511
6.44565
6.42954
6.41637
6.40582
6.39756
6.39133
6.38688
6.38399
6.38248
6.38218
6.38295
6.38465
6.38718
6.39045
6.39438
6.39882
6.40345
6.40753
6.41506
6.4987
3916.43
-548.859
-299.314
-85.1613
-16.3986
3.74491
10.6073
13.8164
15.9208
17.6289
19.1452
20.5277
21.7906
22.9352
23.9599
24.8627
25.6423
26.2983
26.8317
27.2443
27.539
27.7197
27.791
27.7583
27.6275
27.405
27.0978
26.7129
26.2577
25.7396
25.1662
24.545
23.8831
23.1879
22.4661
21.7245
20.9693
20.2064
19.4413
18.6792
17.9246
17.1817
16.4544
15.7457
15.0586
14.3954
13.7582
13.1483
12.567
12.0152
11.4933
11.0014
10.5396
10.1075
9.70461
9.33016
8.98331
8.66306
8.36833
8.09794
7.85066
7.62521
7.4203
7.23464
7.06695
6.91595
6.78041
6.65914
6.55099
6.45486
6.3697
6.29455
6.22846
6.17059
6.12012
6.07632
6.0385
6.00603
5.97835
5.95492
5.93527
5.91898
5.90566
5.89496
5.88657
5.88022
5.87567
5.8727
5.87112
5.87076
5.87148
5.87316
5.87568
5.87895
5.8829
5.88738
5.89211
5.89644
5.904
5.97922
3916.42
-548.878
-299.347
-85.207
-16.4573
3.67326
10.5227
13.7189
15.8106
17.5059
19.0096
20.3795
21.63
22.7623
23.7749
24.6656
25.4333
26.0777
26.5995
27.0008
27.2845
27.4543
27.515
27.4718
27.3309
27.0986
26.7817
26.3875
25.9233
25.3966
24.8148
24.1854
23.5158
22.8131
22.0843
21.3358
20.5741
19.8051
19.0342
18.2665
17.5067
16.7589
16.0268
15.3138
14.6226
13.9556
13.3148
12.7016
12.1172
11.5625
11.0379
10.5437
10.0796
9.64542
9.24059
8.86438
8.51591
8.1942
7.89812
7.6265
7.3781
7.15163
6.94579
6.75929
6.59083
6.43913
6.30295
6.1811
6.07242
5.9758
5.8902
5.81464
5.74818
5.68997
5.63918
5.59509
5.557
5.52428
5.49636
5.47272
5.45287
5.43639
5.42289
5.41203
5.40349
5.39701
5.39233
5.38925
5.38756
5.38712
5.38776
5.38936
5.39183
5.39506
5.39897
5.40345
5.40821
5.41271
5.42021
5.48779
3916.42
-548.897
-299.378
-85.2506
-16.5134
3.60478
10.4419
13.6258
15.7053
17.3885
18.8801
20.2381
21.4768
22.5974
23.5985
24.4778
25.2343
25.8676
26.3786
26.7692
27.0424
27.202
27.2526
27.1997
27.0493
26.8077
26.4819
26.079
25.6064
25.0715
24.4819
23.845
23.1682
22.4586
21.7231
20.9683
20.2006
19.4258
18.6495
17.8767
17.112
16.3597
15.6233
14.9063
14.2113
13.5408
12.8966
12.2804
11.6932
11.1358
10.6088
10.1123
9.64611
9.21001
8.80341
8.42558
8.07564
7.75257
7.45525
7.1825
6.93306
6.70565
6.49896
6.31167
6.14249
5.99014
5.85337
5.73097
5.62179
5.52472
5.43871
5.36276
5.29594
5.23739
5.1863
5.14193
5.10357
5.0706
5.04245
5.01858
4.99852
4.98184
4.96816
4.95712
4.94842
4.94178
4.93696
4.93373
4.93192
4.93135
4.93187
4.93338
4.93575
4.9389
4.94273
4.94715
4.9519
4.9565
4.96387
5.02451
3916.41
-548.915
-299.408
-85.2922
-16.5668
3.53964
10.365
13.5373
15.6052
17.2769
18.7571
20.1038
21.3313
22.4409
23.431
24.2996
25.0455
25.6684
26.1691
26.5497
26.8131
26.9631
27.0044
26.9424
26.783
26.5328
26.1986
25.7876
25.3071
24.7647
24.1678
23.524
22.8404
22.1244
21.3828
20.6222
19.8489
19.0688
18.2875
17.5099
16.7408
15.9842
15.2439
14.5232
13.8247
13.1509
12.5037
11.8847
11.2948
10.735
10.2058
9.70715
9.23908
8.80122
8.393
8.01369
7.66238
7.33806
7.0396
6.7658
6.51541
6.28713
6.07964
5.89163
5.72179
5.56883
5.43151
5.30861
5.19896
5.10146
5.01505
4.93873
4.87158
4.81271
4.76132
4.71667
4.67805
4.64483
4.61644
4.59235
4.57208
4.55519
4.54131
4.53009
4.5212
4.51439
4.5094
4.50601
4.50404
4.50332
4.50371
4.50508
4.50732
4.51035
4.51407
4.51839
4.52308
4.52771
4.5349
4.58925
3916.41
-548.932
-299.436
-85.3315
-16.6173
3.47797
10.2922
13.4535
15.5104
17.1713
18.6407
19.9768
21.1938
22.293
23.2728
24.1313
24.8673
25.4804
25.9716
26.3428
26.597
26.738
26.7705
26.7
26.5323
26.2741
25.9321
25.5135
25.0258
24.4764
23.8727
23.2224
22.5326
21.8106
21.0633
20.2973
19.5189
18.734
17.948
17.1661
16.3928
15.6324
14.8884
14.1643
13.4626
12.7858
12.1359
11.5142
10.922
10.3599
9.8286
9.32807
8.85825
8.41877
8.00906
7.62838
7.27581
6.95034
6.65084
6.37608
6.12481
5.89572
5.6875
5.49882
5.32837
5.17485
5.03701
4.91363
4.80355
4.70564
4.61886
4.54219
4.47471
4.41554
4.36387
4.31894
4.28006
4.2466
4.21797
4.19366
4.17317
4.15607
4.14199
4.13056
4.12148
4.11448
4.1093
4.10574
4.10359
4.10271
4.10293
4.10413
4.10622
4.10909
4.11267
4.11685
4.12144
4.12604
4.13301
4.18166
3916.4
-548.948
-299.463
-85.3686
-16.6649
3.41985
10.2237
13.3746
15.4212
17.0718
18.5312
19.8573
21.0643
22.1538
23.124
23.9731
24.6997
25.3037
25.7859
26.1484
26.394
26.5266
26.551
26.4726
26.2972
26.0315
25.6823
25.2568
24.7623
24.2064
23.5965
22.9401
22.2447
21.5172
20.7647
19.9937
19.2105
18.4211
17.6309
16.845
16.0679
15.3039
14.5566
13.8293
13.1247
12.4452
11.7926
11.1686
10.5742
10.0101
9.47685
8.97458
8.50314
8.06217
7.6511
7.26916
6.91545
6.58892
6.28845
6.01281
5.76073
5.5309
5.32201
5.1327
4.96168
4.80764
4.66932
4.5455
4.43501
4.33672
4.24958
4.17259
4.1048
4.04534
3.99339
3.94819
3.90906
3.87536
3.8465
3.82195
3.80124
3.78393
3.76964
3.758
3.74872
3.74152
3.73615
3.73239
3.73005
3.72897
3.72901
3.73003
3.73193
3.73463
3.73803
3.74204
3.74648
3.75102
3.75772
3.80121
3916.4
-548.963
-299.487
-85.4034
-16.7096
3.36529
10.1593
13.3005
15.3375
16.9786
18.4285
19.7452
20.943
22.0234
22.9846
23.8248
24.5428
25.1383
25.6122
25.9665
26.2042
26.329
26.3459
26.2601
26.0776
25.805
25.4491
25.0171
24.5164
23.9545
23.3389
22.677
21.9763
21.2437
20.4864
19.7108
18.9233
18.1298
17.3357
16.5461
15.7655
14.9983
14.2479
13.5177
12.8104
12.1284
11.4735
10.8473
10.2508
9.68489
9.14992
8.64604
8.17313
7.7308
7.31847
6.93538
6.58061
6.25312
5.95176
5.67531
5.42248
5.19198
4.98245
4.79258
4.62103
4.46651
4.32774
4.20351
4.09263
3.99399
3.90652
3.82921
3.76112
3.70138
3.64916
3.60371
3.56434
3.53039
3.5013
3.47653
3.4556
3.43807
3.42356
3.41172
3.40222
3.39481
3.38923
3.38526
3.38272
3.38144
3.38127
3.38209
3.38379
3.38628
3.38948
3.3933
3.39756
3.40199
3.4084
3.44724
3916.39
-548.976
-299.511
-85.4359
-16.7514
3.3143
10.0992
13.2313
15.2593
16.8914
18.3325
19.6405
20.8297
21.9016
22.8545
23.6866
24.3965
24.9841
25.4502
25.797
26.0273
26.145
26.1549
26.0622
25.8732
25.5942
25.2321
24.7942
24.2878
23.7204
23.0995
22.4326
21.727
20.9898
20.2281
19.4483
18.6568
17.8595
17.0618
16.2688
15.4851
14.7149
13.9617
13.2289
12.5191
11.8348
11.1778
10.5496
9.95127
9.38362
8.84706
8.34172
7.86745
7.42387
7.0104
6.62626
6.27052
5.94214
5.63997
5.36277
5.10926
4.87813
4.66803
4.47762
4.30558
4.15061
4.01143
3.88681
3.77557
3.6766
3.58881
3.5112
3.44284
3.38282
3.33035
3.28465
3.24504
3.21086
3.18154
3.15655
3.13539
3.11765
3.10292
3.09086
3.08115
3.07352
3.06773
3.06354
3.06079
3.05928
3.0589
3.0595
3.06098
3.06325
3.06623
3.06983
3.0739
3.07817
3.08428
3.1189
3916.39
-548.99
-299.532
-85.4662
-16.7903
3.26681
10.0432
13.1668
15.1865
16.8103
18.2432
19.5431
20.7244
21.7884
22.7336
23.558
24.2605
24.8408
25.2998
25.6396
25.8631
25.9742
25.9776
25.8788
25.6837
25.3988
25.0311
24.5877
24.0761
23.5036
22.8779
22.2063
21.4963
20.7549
19.9891
19.2055
18.4104
17.6096
16.8087
16.0126
15.226
14.453
13.6973
12.962
12.2501
11.5636
10.9047
10.2746
9.67464
9.10543
8.56742
8.06074
7.58523
7.14052
6.726
6.34089
5.98427
5.65507
5.35215
5.07426
4.82013
4.58841
4.37778
4.18689
4.0144
3.85901
3.71944
3.59446
3.48289
3.38359
3.29551
3.21762
3.14899
3.08872
3.036
2.99006
2.95021
2.91581
2.88627
2.86105
2.83968
2.82171
2.80677
2.79449
2.78457
2.77672
2.7707
2.76629
2.76331
2.76158
2.76097
2.76134
2.76259
2.76462
2.76736
2.77073
2.77458
2.77868
2.78445
2.81529
3916.38
-549.002
-299.552
-85.4944
-16.8264
3.22276
9.99125
13.1071
15.1189
16.7351
18.1604
19.4529
20.6267
21.6835
22.6216
23.439
24.1346
24.7082
25.1607
25.494
25.7113
25.8163
25.8138
25.7092
25.5086
25.2184
24.8455
24.3971
23.8806
23.3035
22.6734
21.9976
21.2835
20.5383
19.7688
18.9817
18.1833
17.3793
16.5754
15.7765
14.9873
14.2118
13.4538
12.7164
12.0023
11.314
10.6532
10.0216
9.42002
8.84938
8.31005
7.80215
7.32551
6.87976
6.46428
6.07829
5.72085
5.39091
5.0873
4.80879
4.55407
4.32182
4.1107
3.91935
3.74644
3.59066
3.45073
3.32542
3.21353
3.11394
3.02558
2.94742
2.87853
2.81802
2.76506
2.7189
2.67882
2.6442
2.61443
2.589
2.56741
2.54923
2.53407
2.52158
2.51143
2.50336
2.49712
2.49249
2.48928
2.48732
2.48646
2.4866
2.4876
2.48939
2.49189
2.49501
2.49861
2.50251
2.50795
2.53537
3916.38
-549.013
-299.571
-85.5204
-16.8598
3.18204
9.94325
13.0518
15.0566
16.6657
18.084
19.3695
20.5366
21.5867
22.5182
23.3292
24.0185
24.5859
25.0323
25.3598
25.5714
25.6708
25.6629
25.5531
25.3474
25.0523
24.6746
24.2217
23.7009
23.1196
22.4854
21.8057
21.0879
20.3392
19.5664
18.7761
17.9747
17.1679
16.3613
15.5598
14.7682
13.9904
13.2303
12.4909
11.775
11.0849
10.4225
9.78935
9.18641
8.61447
8.07394
7.56492
7.08726
6.64055
6.22419
5.8374
5.47922
5.14859
4.84435
4.56526
4.31
4.07727
3.86569
3.67392
3.50062
3.34448
3.20422
3.07859
2.9664
2.86653
2.7779
2.6995
2.63037
2.56962
2.51643
2.47005
2.42975
2.39492
2.36494
2.33929
2.31749
2.2991
2.28373
2.27101
2.26065
2.25236
2.24589
2.24103
2.23759
2.23539
2.2343
2.23419
2.23495
2.23648
2.23872
2.24158
2.24494
2.24862
2.25372
2.27807
3916.38
-549.023
-299.588
-85.5443
-16.8906
3.14454
9.89904
13.001
14.9991
16.6017
18.0136
19.2928
20.4537
21.4976
22.4231
23.2282
23.9117
24.4735
24.9144
25.2366
25.4428
25.5372
25.5244
25.4098
25.1995
24.8999
24.518
24.0609
23.5361
22.951
22.3131
21.6299
20.9088
20.1569
19.381
18.5879
17.7837
16.9743
16.1653
15.3615
14.5677
13.7879
13.0258
12.2846
11.567
10.8754
10.2116
9.57698
8.97277
8.39965
7.85802
7.34798
6.86938
6.4218
6.00464
5.61711
5.25825
4.92699
4.62217
4.34254
4.0868
3.85361
3.64161
3.44945
3.27579
3.11932
2.97873
2.85281
2.74035
2.64022
2.55134
2.47269
2.40333
2.34236
2.28896
2.24236
2.20186
2.16681
2.13663
2.11077
2.08877
2.07017
2.05458
2.04165
2.03107
2.02256
2.01587
2.01079
2.00711
2.00468
2.00334
2.00298
2.00349
2.00477
2.00675
2.00934
2.01245
2.0159
2.02065
2.04224
3916.37
-549.032
-299.604
-85.5663
-16.9188
3.1101
9.85845
12.9543
14.9464
16.5431
17.9491
19.2225
20.3776
21.416
22.336
23.1357
23.8139
24.3705
24.8065
25.1237
25.3252
25.415
25.3977
25.2788
25.0642
24.7606
24.3748
23.914
23.3855
22.7969
22.1558
21.4694
20.7453
19.9905
19.2119
18.4161
17.6095
16.7978
15.9865
15.1807
14.3849
13.6032
12.8394
12.0965
11.3774
10.6844
10.0192
9.38338
8.77801
8.20381
7.66118
7.15022
6.67076
6.22239
5.8045
5.41628
5.0568
4.72496
4.41961
4.13949
3.88329
3.64968
3.43729
3.24477
3.07078
2.91399
2.77311
2.64691
2.53419
2.43381
2.34469
2.26582
2.19624
2.13505
2.08144
2.03464
1.99394
1.95869
1.92831
1.90225
1.88005
1.86124
1.84545
1.83231
1.82152
1.8128
1.80588
1.80057
1.79666
1.79399
1.79242
1.79181
1.79207
1.79309
1.79481
1.79714
1.79998
1.80318
1.80759
1.82671
3916.37
-549.041
-299.618
-85.5865
-16.9447
3.07858
9.8213
12.9116
14.8982
16.4894
17.89
19.1582
20.3081
21.3414
22.2563
23.0511
23.7246
24.2765
24.7079
25.0207
25.2179
25.3035
25.2821
25.1593
24.941
24.6337
24.2443
23.7801
23.2484
22.6568
22.0126
21.3234
20.5965
19.8391
19.0581
18.26
17.4511
16.6372
15.824
15.0162
14.2187
13.4354
12.6699
11.9256
11.2051
10.5108
9.84439
9.20745
8.60103
8.02585
7.48231
6.9705
6.49026
6.04117
5.6226
5.23376
4.8737
4.54134
4.2355
3.95492
3.6983
3.4643
3.25155
3.05869
2.88438
2.7273
2.58615
2.45969
2.34672
2.24611
2.15677
2.07768
2.00789
1.9465
1.89269
1.84569
1.8048
1.76936
1.73878
1.71254
1.69013
1.67113
1.65514
1.6418
1.6308
1.62186
1.61473
1.60919
1.60506
1.60216
1.60035
1.5995
1.5995
1.60027
1.60172
1.60378
1.60636
1.60932
1.61339
1.63029
3916.37
-549.049
-299.631
-85.6048
-16.9683
3.04981
9.7874
12.8726
14.8542
16.4404
17.8362
19.0995
20.2447
21.2733
22.1838
22.9741
23.6432
24.1909
24.6182
24.927
25.1203
25.2021
25.1771
25.0507
24.829
24.5184
24.1259
23.6587
23.124
22.5296
21.8827
21.191
20.4616
19.7019
18.9186
18.1184
17.3075
16.4918
15.6767
14.8673
14.0681
13.2833
12.5165
11.7708
11.0491
10.3535
9.68606
9.04809
8.44071
7.86465
7.32028
6.8077
6.32674
5.87698
5.4578
5.0684
4.70781
4.37495
4.06866
3.78766
3.53065
3.29628
3.0832
2.89003
2.71543
2.55806
2.41666
2.28995
2.17675
2.07591
1.98636
1.90707
1.83708
1.7755
1.7215
1.67432
1.63323
1.59761
1.56685
1.54042
1.51782
1.49863
1.48244
1.4689
1.4577
1.44856
1.44122
1.43546
1.43111
1.42798
1.42593
1.42484
1.4246
1.42511
1.42631
1.4281
1.43042
1.43313
1.43687
1.45179
3916.36
-549.056
-299.643
-85.6216
-16.9897
3.02362
9.75655
12.8371
14.8141
16.3959
17.7872
19.0462
20.1871
21.2115
22.1179
22.9042
23.5694
24.1133
24.5368
24.842
25.0318
25.1103
25.082
24.9524
24.7276
24.4141
24.0187
23.5488
23.0115
22.4145
21.7653
21.0712
20.3397
19.5779
18.7926
17.9905
17.1778
16.3604
15.5437
14.7328
13.9322
13.146
12.3779
11.631
10.9082
10.2116
9.5431
8.90421
8.29596
7.71909
7.17396
6.66069
6.17907
5.72871
5.30896
4.91903
4.55795
4.22464
3.91793
3.63654
3.37917
3.14446
2.93106
2.7376
2.56272
2.4051
2.26345
2.13651
2.02309
1.92205
1.83229
1.7528
1.68263
1.62086
1.56668
1.51932
1.47806
1.44225
1.41131
1.3847
1.36193
1.34255
1.32617
1.31245
1.30105
1.2917
1.28416
1.27819
1.27362
1.27027
1.268
1.26667
1.26619
1.26645
1.26739
1.26893
1.27099
1.27345
1.27687
1.29001
3916.36
-549.063
-299.654
-85.6368
-17.0092
2.99984
9.72854
12.8049
14.7778
16.3555
17.7428
18.9978
20.1349
21.1556
22.0582
22.8409
23.5026
24.043
24.4632
24.7652
24.9519
25.0272
24.996
24.8636
24.6361
24.3199
23.922
23.4496
22.9101
22.3108
21.6595
20.9634
20.2299
19.4662
18.6792
17.8754
17.0611
16.2422
15.424
14.6117
13.8098
13.0224
12.2532
11.5053
10.7814
10.0838
9.41446
8.77472
8.16569
7.58808
7.04227
6.52835
6.04614
5.59521
5.17494
4.78453
4.423
4.08927
3.78217
3.50041
3.2427
3.00768
2.79399
2.60025
2.42511
2.26724
2.12536
1.9982
1.88458
1.78333
1.69339
1.61371
1.54336
1.48142
1.42706
1.37953
1.33809
1.30212
1.27101
1.24423
1.22128
1.20172
1.18517
1.17125
1.15967
1.15013
1.14239
1.13622
1.13144
1.12787
1.12537
1.12382
1.1231
1.12313
1.12382
1.12511
1.12691
1.12913
1.13224
1.1438
3916.36
-549.069
-299.664
-85.6506
-17.0269
2.97829
9.70316
12.7758
14.7449
16.3189
17.7026
18.9541
20.0877
21.1049
22.0042
22.7837
23.4422
23.9796
24.3968
24.6959
24.8798
24.9524
24.9186
24.7837
24.5537
24.2352
23.8351
23.3605
22.8189
22.2177
21.5644
20.8665
20.1313
19.366
18.5774
17.7721
16.9564
16.1361
15.3167
14.5032
13.7001
12.9116
12.1414
11.3925
10.6677
9.96925
9.29908
8.65858
8.04884
7.47055
6.92412
6.40961
5.92685
5.47541
5.05466
4.6638
4.30185
3.96773
3.66026
3.37817
3.12014
2.88482
2.67085
2.47685
2.30146
2.14337
2.00126
1.8739
1.76007
1.65864
1.56851
1.48866
1.41813
1.35602
1.3015
1.2538
1.21221
1.17607
1.1448
1.11785
1.09473
1.07501
1.05828
1.04419
1.03242
1.0227
1.01476
1.0084
1.00342
0.999646
0.996937
0.995165
0.994222
0.994016
0.99447
0.995514
0.99707
0.999051
1.00185
1.01201
3916.36
-549.074
-299.673
-85.663
-17.0429
2.9588
9.68021
12.7494
14.7152
16.2859
17.6663
18.9146
20.0451
21.0593
21.9556
22.7322
23.3879
23.9225
24.3371
24.6336
24.815
24.8852
24.8491
24.7119
24.4798
24.1593
23.7571
23.2807
22.7372
22.1343
21.4793
20.7798
20.0431
19.2763
18.4863
17.6797
16.8627
16.0413
15.2207
14.4061
13.6021
12.8126
12.0414
11.2917
10.566
9.86685
9.19594
8.55476
7.94437
7.36548
6.81846
6.30342
5.82015
5.36824
4.94705
4.55577
4.19343
3.85895
3.55114
3.26873
3.0104
2.7748
2.56056
2.36631
2.1907
2.03238
1.89007
1.7625
1.64849
1.54687
1.45657
1.37655
1.30585
1.24358
1.1889
1.14105
1.09929
1.063
1.03157
1.00446
0.981187
0.961301
0.944407
0.930149
0.91821
0.908308
0.900193
0.893644
0.888469
0.884498
0.881585
0.879603
0.878443
0.878015
0.878239
0.879048
0.880367
0.882116
0.884634
0.893535
3916.36
-549.079
-299.681
-85.6743
-17.0574
2.94118
9.65947
12.7256
14.6883
16.2561
17.6336
18.879
20.0067
21.0181
21.9118
22.6858
23.339
23.8712
24.2834
24.5776
24.7568
24.825
24.7868
24.6477
24.4137
24.0913
23.6875
23.2093
22.6643
22.0598
21.4034
20.7025
19.9644
19.1964
18.4052
17.5974
16.7793
15.9568
15.1353
14.3197
13.5147
12.7244
11.9524
11.2019
10.4755
9.77565
9.10408
8.46228
7.8513
7.27185
6.72431
6.20877
5.72504
5.27269
4.85109
4.45942
4.09672
3.7619
3.45377
3.17105
2.91244
2.67658
2.46209
2.2676
2.09176
1.93323
1.79072
1.66296
1.54876
1.44697
1.3565
1.27632
1.20547
1.14304
1.08821
1.0402
0.998299
0.961857
0.930277
0.903018
0.879589
0.859548
0.842496
0.828078
0.815974
0.805903
0.797615
0.790888
0.785529
0.78137
0.778262
0.77608
0.774714
0.774073
0.774078
0.774662
0.775755
0.77728
0.779527
0.787314
3916.36
-549.083
-299.688
-85.6845
-17.0705
2.92527
9.64075
12.7041
14.6641
16.2292
17.6041
18.8469
19.9721
20.9812
21.8725
22.6442
23.2951
23.8252
24.2353
24.5275
24.7048
24.7711
24.7311
24.5903
24.3546
24.0307
23.6253
23.1458
22.5993
21.9935
21.3358
20.6337
19.8945
19.1254
18.3331
17.5243
16.7053
15.8818
15.0594
14.243
13.4373
12.6462
11.8735
11.1222
10.3952
9.69472
9.02256
8.38019
7.76868
7.18872
6.64071
6.12471
5.64055
5.18779
4.76581
4.37378
4.01074
3.67559
3.36715
3.08415
2.82527
2.58915
2.37442
2.17971
2.00366
1.84492
1.70222
1.57428
1.4599
1.35794
1.26731
1.18697
1.11596
1.05339
0.99841
0.950255
0.908212
0.871627
0.839903
0.8125
0.788926
0.768737
0.751535
0.736964
0.724704
0.714473
0.70602
0.699124
0.693591
0.689252
0.68596
0.683588
0.682026
0.681183
0.68098
0.681351
0.682227
0.683539
0.685529
0.692327
3916.35
-549.087
-299.695
-85.6937
-17.0823
2.9109
9.62384
12.6847
14.6423
16.2049
17.5775
18.8181
19.941
20.9479
21.8371
22.6068
23.2558
23.784
24.1923
24.4827
24.6583
24.723
24.6815
24.5392
24.3021
23.9768
23.5701
23.0893
22.5417
21.9347
21.276
20.5728
19.8326
19.0625
18.2693
17.4597
16.6398
15.8156
14.9924
14.1753
13.3688
12.5771
11.8037
11.0518
10.3243
9.62319
8.95049
8.30762
7.69561
7.11519
6.56674
6.05032
5.56576
5.11262
4.69028
4.29791
3.93454
3.5991
3.29037
3.0071
2.74796
2.51159
2.29663
2.1017
1.92544
1.76651
1.62361
1.4955
1.38095
1.27883
1.18803
1.10754
1.03639
0.97367
0.918551
0.870257
0.828075
0.791353
0.759493
0.731952
0.708239
0.68791
0.670566
0.655849
0.643441
0.633058
0.624449
0.617393
0.611696
0.607188
0.603721
0.601169
0.599422
0.598388
0.597988
0.598157
0.598829
0.599937
0.601687
0.607609
3916.35
-549.091
-299.701
-85.7021
-17.093
2.89789
9.60856
12.6672
14.6226
16.1831
17.5535
18.7921
19.9131
20.918
21.8054
22.5733
23.2205
23.7471
24.1538
24.4427
24.6169
24.6801
24.6373
24.4937
24.2554
23.9289
23.5212
23.0393
22.4906
21.8827
21.223
20.519
19.778
19.007
18.2131
17.4027
16.5821
15.7572
14.9334
14.1156
13.3085
12.5162
11.7423
10.9899
10.2618
9.56021
8.88704
8.2437
7.63125
7.05041
6.50154
5.98474
5.49981
5.04632
4.62363
4.23094
3.86727
3.53153
3.22253
2.93899
2.6796
2.443
2.22782
2.03268
1.85621
1.69709
1.55401
1.42572
1.31101
1.20873
1.11778
1.03714
0.965843
0.902985
0.847729
0.799301
0.756987
0.720133
0.688142
0.660469
0.636624
0.616161
0.598682
0.583828
0.571279
0.560753
0.551997
0.54479
0.538938
0.53427
0.530639
0.527918
0.525996
0.524783
0.524198
0.524177
0.524655
0.525571
0.527096
0.532242
3916.35
-549.094
-299.706
-85.7096
-17.1026
2.88611
9.59472
12.6513
14.6047
16.1633
17.5319
18.7686
19.8878
20.8911
21.7768
22.5432
23.1889
23.714
24.1194
24.407
24.5799
24.6419
24.5979
24.4533
24.214
23.8865
23.4778
22.9951
22.4456
21.8369
21.1764
20.4716
19.7299
18.9583
18.1637
17.3527
16.5315
15.706
14.8816
14.0633
13.2557
12.4629
11.6884
10.9356
10.207
9.50501
8.8314
8.18764
7.5748
6.99356
6.44432
5.92716
5.44188
4.98806
4.56506
4.17206
3.8081
3.47208
3.16281
2.87902
2.61939
2.38256
2.16716
1.97181
1.79514
1.63584
1.49258
1.36412
1.24924
1.1468
1.05571
0.974921
0.903483
0.840489
0.7851
0.736542
0.6941
0.657119
0.625002
0.597204
0.573232
0.552643
0.535035
0.52005
0.507369
0.496707
0.487813
0.480464
0.474467
0.469649
0.465864
0.462984
0.460899
0.459517
0.458759
0.45856
0.458857
0.459592
0.460907
0.465368
3916.35
-549.097
-299.711
-85.7165
-17.1115
2.87539
9.58213
12.6369
14.5885
16.1454
17.5123
18.7474
19.8651
20.8669
21.7511
22.5161
23.1606
23.6844
24.0886
24.3751
24.5469
24.6079
24.563
24.4174
24.1773
23.849
23.4395
22.9561
22.4059
21.7965
21.1354
20.4301
19.6878
18.9156
18.1205
17.309
16.4873
15.6613
14.8364
14.0177
13.2096
12.4164
11.6415
10.8882
10.1593
9.45684
8.78285
8.13872
7.5255
6.94391
6.39433
5.87683
5.39122
4.93708
4.51378
4.12049
3.75625
3.41996
3.11043
2.8264
2.56653
2.32948
2.11386
1.91831
1.74145
1.58196
1.43852
1.30989
1.19486
1.09226
1.00102
0.920093
0.848517
0.78539
0.729873
0.681188
0.638622
0.601519
0.569281
0.541363
0.517271
0.49656
0.478831
0.463723
0.450916
0.440127
0.431103
0.423621
0.417486
0.412529
0.4086
0.405571
0.403334
0.401794
0.400875
0.400509
0.400637
0.401202
0.402323
0.406179
3916.35
-549.1
-299.716
-85.7229
-17.1195
2.86558
9.57064
12.6238
14.5738
16.1291
17.4945
18.7282
19.8445
20.8449
21.7279
22.4917
23.135
23.6578
24.061
24.3465
24.5174
24.5777
24.5319
24.3856
24.1448
23.8159
23.4058
22.9217
22.371
21.7611
21.0995
20.3937
19.6509
18.8784
18.0828
17.2709
16.4488
15.6224
14.7972
13.978
13.1696
12.376
11.6008
10.8471
10.1178
9.41504
8.7407
8.09622
7.48267
6.90075
6.35085
5.83303
5.34712
4.89269
4.46909
4.07552
3.71101
3.37446
3.06469
2.78041
2.52031
2.28304
2.06721
1.87145
1.69441
1.53473
1.39112
1.26232
1.14713
1.04438
0.952992
0.871925
0.800215
0.736957
0.681313
0.632506
0.589819
0.552598
0.520243
0.492209
0.468003
0.447177
0.429331
0.414107
0.401182
0.390273
0.381127
0.37352
0.367258
0.362169
0.358105
0.354939
0.352559
0.350873
0.349803
0.349283
0.349253
0.349661
0.350602
0.353926
3916.35
-549.102
-299.72
-85.7287
-17.127
2.85656
9.56007
12.6117
14.5603
16.1141
17.4782
18.7106
19.8257
20.8249
21.7069
22.4696
23.112
23.6338
24.0361
24.3209
24.4911
24.5506
24.5043
24.3574
24.116
23.7866
23.376
22.8915
22.3404
21.7301
21.0682
20.362
19.6189
18.846
18.0501
17.2379
16.4155
15.5888
14.7632
13.9438
13.1351
12.3411
11.5656
10.8117
10.082
9.37895
8.7043
8.05952
7.44567
6.86345
6.31324
5.79513
5.30893
4.85421
4.43034
4.0365
3.67173
3.33493
3.0249
2.74039
2.48007
2.24257
2.02654
1.83058
1.65334
1.49348
1.3497
1.22073
1.10538
1.00248
0.910947
0.829741
0.757897
0.694511
0.638743
0.589815
0.547011
0.509675
0.477208
0.449063
0.424745
0.40381
0.385854
0.370519
0.357483
0.346461
0.3372
0.329476
0.323095
0.317884
0.313695
0.3104
0.307888
0.306067
0.304858
0.304194
0.304019
0.30428
0.305055
0.307911
3916.35
-549.105
-299.724
-85.7341
-17.1339
2.84819
9.55027
12.6005
14.5477
16.1004
17.4632
18.6945
19.8084
20.8067
21.6876
22.4495
23.091
23.6121
24.0137
24.2978
24.4674
24.5264
24.4796
24.3322
24.0904
23.7606
23.3498
22.8649
22.3135
21.703
21.0408
20.3344
19.5911
18.8179
18.0218
17.2094
16.3867
15.5598
14.734
13.9144
13.1054
12.3112
11.5354
10.7812
10.0513
9.348
8.67308
8.02803
7.41389
6.8314
6.28091
5.76253
5.27605
4.82106
4.39692
4.00282
3.63779
3.30074
2.99047
2.70573
2.44518
2.20747
1.99122
1.79506
1.61763
1.45759
1.31363
1.1845
1.06899
0.965942
0.874261
0.792917
0.72094
0.657427
0.601536
0.552489
0.509571
0.472123
0.439546
0.411294
0.386871
0.36583
0.34777
0.33233
0.319189
0.30806
0.298691
0.290859
0.284366
0.279041
0.274736
0.271322
0.268688
0.266741
0.265403
0.264608
0.264298
0.264424
0.265046
0.267491
3916.35
-549.107
-299.728
-85.7392
-17.1404
2.84035
9.5411
12.5901
14.5361
16.0875
17.4493
18.6795
19.7925
20.7898
21.6699
22.431
23.0718
23.5923
23.9933
24.2769
24.446
24.5046
24.4574
24.3098
24.0677
23.7377
23.3266
22.8416
22.29
21.6793
21.017
20.3104
19.567
18.7937
17.9975
17.1849
16.3621
15.535
14.7091
13.8893
13.0801
12.2857
11.5098
10.7553
10.0252
9.32165
8.6465
8.00119
7.38681
6.80405
6.25331
5.73466
5.24793
4.79267
4.36828
3.97392
3.60864
3.27134
2.96084
2.67586
2.41509
2.17716
1.9607
1.76434
1.58672
1.42649
1.28236
1.15306
1.03739
0.934189
0.842363
0.76088
0.688771
0.625131
0.569119
0.519955
0.476924
0.439367
0.406684
0.378327
0.353802
0.33266
0.3145
0.298961
0.28572
0.274491
0.265021
0.257087
0.25049
0.24506
0.240647
0.237123
0.234376
0.232314
0.230857
0.229939
0.229506
0.229507
0.229991
0.232075
3916.35
-549.109
-299.731
-85.744
-17.1465
2.83291
9.53242
12.5802
14.5251
16.0754
17.4362
18.6654
19.7775
20.7741
21.6535
22.4139
23.0541
23.5741
23.9746
24.2578
24.4266
24.4849
24.4375
24.2896
24.0474
23.7172
23.3061
22.821
22.2693
21.6586
20.9962
20.2896
19.5462
18.7728
17.9766
17.1639
16.3411
15.514
14.6879
13.868
13.0587
12.2642
11.4881
10.7335
10.0032
9.29941
8.62405
7.97852
7.36391
6.78092
6.22993
5.71104
5.22405
4.76855
4.3439
3.9493
3.58377
3.24623
2.93549
2.65028
2.38928
2.15113
1.93446
1.7379
1.56009
1.39967
1.25536
1.1259
1.01006
0.906705
0.814733
0.73311
0.660869
0.597102
0.540968
0.491689
0.448546
0.410881
0.378094
0.349636
0.325012
0.303773
0.285517
0.269883
0.256548
0.245225
0.23566
0.22763
0.220937
0.215408
0.210896
0.20727
0.204419
0.20225
0.200684
0.199655
0.199108
0.198995
0.199352
0.201121
3916.35
-549.111
-299.734
-85.7486
-17.1524
2.82577
9.5241
12.5707
14.5145
16.0639
17.4237
18.6521
19.7634
20.7592
21.638
22.3978
23.0376
23.5571
23.9573
24.2402
24.4088
24.4669
24.4193
24.2714
24.0291
23.699
23.2878
22.8027
22.2512
21.6405
20.9782
20.2717
19.5282
18.755
17.9587
17.1461
16.3233
15.4962
14.6701
13.8501
13.0408
12.2462
11.4699
10.7152
9.98476
9.28083
8.60529
7.95957
7.34475
6.76154
6.21033
5.6912
5.20397
4.74823
4.32333
3.92848
3.56271
3.22493
2.91395
2.62851
2.36728
2.12892
1.91204
1.71527
1.53726
1.37665
1.23216
1.10252
0.986527
0.883015
0.790894
0.709132
0.636756
0.572862
0.516607
0.467212
0.423959
0.386188
0.353298
0.324741
0.300021
0.278689
0.260341
0.244616
0.231191
0.219779
0.210126
0.202006
0.195222
0.189603
0.184998
0.181278
0.178331
0.176065
0.174399
0.173268
0.172617
0.1724
0.172642
0.174134
3916.35
-549.113
-299.738
-85.7531
-17.1582
2.81883
9.51602
12.5616
14.5044
16.0528
17.4117
18.6393
19.7499
20.7451
21.6233
22.3826
23.022
23.5412
23.9411
24.2238
24.3923
24.4503
24.4027
24.2548
24.0126
23.6825
23.2715
22.7865
22.2351
21.6246
20.9624
20.2561
19.5128
18.7396
17.9436
17.131
16.3083
15.4812
14.6552
13.8352
13.0259
12.2312
11.4549
10.7001
9.96956
9.2655
8.5898
7.94392
7.32891
6.7455
6.19408
5.67472
5.18727
4.73129
4.30616
3.91106
3.54505
3.20703
2.89581
2.61013
2.34868
2.11009
1.893
1.69602
1.51781
1.35701
1.21234
1.08253
0.96636
0.86269
0.77042
0.688514
0.616003
0.551981
0.495604
0.446093
0.40273
0.364854
0.331863
0.303209
0.278395
0.256972
0.238535
0.222724
0.209213
0.197717
0.187979
0.179775
0.172908
0.167204
0.162513
0.158706
0.155672
0.153316
0.151558
0.150334
0.149589
0.149277
0.149414
0.150666
3916.35
-549.115
-299.741
-85.7576
-17.1638
2.81199
9.50806
12.5526
14.4944
16.0419
17.3999
18.6268
19.7367
20.7313
21.609
22.368
23.007
23.5259
23.9257
24.2083
24.3767
24.4348
24.3873
24.2395
23.9974
23.6675
23.2567
22.772
22.2208
21.6105
20.9486
20.2425
19.4995
18.7266
17.9307
17.1183
16.2958
15.4688
14.6429
13.823
13.0137
12.219
11.4427
10.6879
9.95722
9.25306
8.57723
7.9312
7.31602
6.73243
6.18081
5.66124
5.17357
4.71736
4.29199
3.89666
3.5304
3.19214
2.88069
2.59477
2.33309
2.09427
1.87696
1.67977
1.50135
1.34037
1.1955
1.06551
0.949176
0.845344
0.75292
0.67087
0.598222
0.53407
0.47757
0.427943
0.384468
0.346487
0.313396
0.284647
0.259741
0.238229
0.219707
0.203812
0.19022
0.178643
0.168826
0.160543
0.153597
0.147814
0.143044
0.139158
0.136042
0.133604
0.131763
0.130454
0.129623
0.129224
0.129267
0.130309
3916.34
-549.117
-299.744
-85.7621
-17.1695
2.80516
9.50013
12.5436
14.4844
16.031
17.3883
18.6144
19.7237
20.7178
21.5951
22.3537
22.9924
23.5112
23.9109
24.1935
24.3619
24.4201
24.3728
24.2252
23.9834
23.6538
23.2432
22.7589
22.208
21.5981
20.9365
20.2307
19.488
18.7154
17.9198
17.1077
16.2853
15.4586
14.6328
13.813
13.0038
12.2092
11.4329
10.6781
9.94739
9.24316
8.56723
7.92107
7.30575
6.72199
6.17018
5.65042
5.16253
4.7061
4.2805
3.88493
3.51843
3.17993
2.86823
2.58208
2.32016
2.08112
1.86358
1.66618
1.48755
1.32636
1.18131
1.05113
0.934625
0.830628
0.738047
0.655849
0.583061
0.518777
0.462153
0.412408
0.368823
0.330737
0.297546
0.268702
0.243705
0.222107
0.203501
0.187525
0.173855
0.162201
0.152309
0.143952
0.136932
0.131076
0.126233
0.122272
0.119083
0.116569
0.114652
0.113266
0.112356
0.111879
0.111838
0.112698
3916.34
-549.119
-299.747
-85.7666
-17.1752
2.79826
9.49212
12.5345
14.4744
16.0201
17.3766
18.6021
19.7108
20.7044
21.5812
22.3395
22.9781
23.4968
23.8964
24.1791
24.3476
24.406
24.3589
24.2116
23.9701
23.6409
23.2308
22.7468
22.1964
21.5869
20.9257
20.2204
19.478
18.7058
17.9106
17.0988
16.2767
15.4502
14.6247
13.8051
12.996
12.2015
11.4253
10.6705
9.93978
9.2355
8.55951
7.91325
7.2978
6.71389
6.1619
5.64195
5.15385
4.6972
4.27137
3.87557
3.50884
3.17009
2.85815
2.57176
2.3096
2.07032
1.85256
1.65493
1.47609
1.3147
1.16945
1.03908
0.922396
0.81823
0.72549
0.64314
0.570209
0.505791
0.449041
0.399177
0.355479
0.317287
0.283997
0.255058
0.229972
0.208288
0.1896
0.173546
0.1598
0.148073
0.138109
0.129682
0.122593
0.116668
0.111757
0.107728
0.10447
0.101888
0.0999017
0.0984455
0.0974652
0.0969175
0.0968004
0.0975017
3916.34
-549.121
-299.751
-85.7712
-17.1811
2.79122
9.48394
12.5253
14.4642
16.009
17.3648
18.5895
19.6976
20.6908
21.5673
22.3253
22.9637
23.4823
23.882
24.1648
24.3336
24.3922
24.3454
24.1985
23.9575
23.6287
23.2191
22.7356
22.1857
21.5767
20.9161
20.2112
19.4694
18.6976
17.9028
17.0914
16.2697
15.4435
14.6182
13.7989
12.99
12.1957
11.4195
10.6648
9.93412
9.22983
8.55379
7.90745
7.29189
6.70784
6.1557
5.63556
5.14727
4.6904
4.26435
3.86831
3.50134
3.16235
2.85016
2.56353
2.30112
2.06161
1.84361
1.64576
1.4667
1.30509
1.15964
1.02908
0.912213
0.807873
0.714968
0.632463
0.559387
0.494831
0.437951
0.387966
0.344155
0.305857
0.272466
0.243433
0.218257
0.196489
0.177721
0.16159
0.147771
0.135973
0.125941
0.117447
0.110293
0.104304
0.0993294
0.0952377
0.0919169
0.0892717
0.0872222
0.0857024
0.0846583
0.0840468
0.0838617
0.0844259
3916.34
-549.123
-299.754
-85.7759
-17.1871
2.78396
9.47552
12.5158
14.4537
15.9977
17.3526
18.5766
19.6842
20.6769
21.5531
22.3109
22.9492
23.4678
23.8676
24.1505
24.3196
24.3786
24.3322
24.1857
23.9452
23.617
23.2079
22.725
22.1757
21.5673
20.9073
20.203
19.4617
18.6905
17.8962
17.0853
16.264
15.4382
14.6132
13.7942
12.9855
12.1914
11.4154
10.6608
9.93017
9.2259
8.54984
7.90344
7.28779
6.70362
6.15132
5.63102
5.14253
4.68545
4.25918
3.86291
3.49569
3.15646
2.84403
2.55714
2.29449
2.05473
1.83649
1.63841
1.45913
1.2973
1.15164
1.02089
0.903829
0.799309
0.706235
0.623571
0.550345
0.485648
0.428637
0.378529
0.334602
0.296195
0.262704
0.233575
0.208311
0.186459
0.167612
0.151406
0.137514
0.125648
0.11555
0.106993
0.0997771
0.0937281
0.0886941
0.0845441
0.0811654
0.0784626
0.0763555
0.0747781
0.0736763
0.0730075
0.0727617
0.0732073
3916.34
-549.125
-299.758
-85.7808
-17.1934
2.77643
9.46678
12.5059
14.4428
15.9858
17.34
18.5633
19.6703
20.6626
21.5384
22.2961
22.9343
23.4529
23.8528
24.136
24.3054
24.3648
24.3189
24.173
23.9331
23.6055
23.197
22.7149
22.1662
21.5585
20.8992
20.1956
19.4549
18.6843
17.8905
17.0802
16.2594
15.434
14.6095
13.7908
12.9824
12.1885
11.4127
10.6582
9.92772
9.2235
8.54744
7.901
7.28528
6.701
6.14857
5.6281
5.13943
4.68215
4.25565
3.85915
3.49169
3.15221
2.83952
2.55239
2.28949
2.04948
1.831
1.63267
1.45316
1.29111
1.14524
1.01428
0.897024
0.79232
0.699072
0.616244
0.542863
0.478023
0.420876
0.370642
0.326598
0.288081
0.254487
0.225263
0.199909
0.177973
0.159048
0.142767
0.128806
0.116874
0.106712
0.0980939
0.0908193
0.0847135
0.0796241
0.0754198
0.0719877
0.069232
0.0670724
0.0654427
0.064289
0.0635687
0.0632688
0.0636121
3916.34
-549.127
-299.761
-85.786
-17.1999
2.76855
9.45765
12.4956
14.4315
15.9735
17.3268
18.5495
19.6559
20.6477
21.5232
22.2807
22.9189
23.4376
23.8377
24.1212
24.2909
24.3508
24.3055
24.1602
23.9209
23.594
23.1863
22.7049
22.157
21.5501
20.8915
20.1886
19.4487
18.6788
17.8857
17.0759
16.2557
15.4308
14.6068
13.7884
12.9804
12.1868
11.4113
10.657
9.92657
9.22243
8.5464
7.89995
7.28417
6.6998
6.14725
5.62663
5.13777
4.6803
4.25358
3.85685
3.48915
3.14941
2.83647
2.54908
2.28592
2.04565
1.82692
1.62836
1.4486
1.28633
1.14023
1.00906
0.891607
0.786713
0.693285
0.610288
0.536749
0.47176
0.414475
0.364112
0.319947
0.281319
0.24762
0.2183
0.192856
0.170836
0.151832
0.135478
0.121448
0.109451
0.0992273
0.0905505
0.0832199
0.0770601
0.0719187
0.0676637
0.0641821
0.0613778
0.0591704
0.0574934
0.0562929
0.0555264
0.0551785
0.0554337
3916.34
-549.13
-299.765
-85.7914
-17.2068
2.76025
9.44806
12.4848
14.4195
15.9606
17.313
18.535
19.6408
20.6321
21.5073
22.2646
22.9028
23.4216
23.8219
24.1058
24.276
24.3364
24.2916
24.1471
23.9085
23.5824
23.1756
22.695
22.148
21.5419
20.8842
20.1821
19.443
18.6738
17.8814
17.0723
16.2528
15.4285
14.6049
13.7871
12.9795
12.1862
11.4109
10.6568
9.92657
9.22253
8.54656
7.90012
7.28431
6.69986
6.1472
5.62643
5.1374
4.67973
4.2528
3.85583
3.48789
3.1479
2.8347
2.54704
2.28362
2.0431
1.82411
1.62529
1.44529
1.28278
1.13646
1.00507
0.887408
0.782318
0.688705
0.605534
0.531832
0.46669
0.409263
0.358767
0.314479
0.275736
0.241932
0.212513
0.186978
0.164873
0.145791
0.129364
0.115266
0.103204
0.092921
0.0841875
0.0768031
0.070592
0.0654013
0.0610989
0.0575714
0.0547224
0.0524712
0.0507513
0.0495086
0.0487009
0.0483105
0.04849
3916.34
-549.132
-299.769
-85.7972
-17.2142
2.75143
9.43792
12.4735
14.407
15.947
17.2985
18.5197
19.6249
20.6157
21.4906
22.2478
22.8859
23.4048
23.8055
24.0897
24.2604
24.3214
24.2773
24.1335
23.8958
23.5706
23.1646
22.685
22.1389
21.5338
20.8769
20.1758
19.4375
18.6692
17.8776
17.0693
16.2504
15.4268
14.6038
13.7864
12.9793
12.1864
11.4115
10.6576
9.92756
9.22366
8.54777
7.90136
7.28553
6.70103
6.14826
5.62736
5.13817
4.6803
4.25316
3.85596
3.48777
3.14753
2.83407
2.54614
2.28245
2.04166
1.82241
1.62333
1.44308
1.28032
1.13377
1.00216
0.88428
0.778988
0.685184
0.601833
0.527963
0.462664
0.40509
0.354457
0.310043
0.271184
0.237271
0.207752
0.182125
0.159935
0.140773
0.124274
0.110107
0.0979827
0.0876404
0.0788516
0.0714152
0.065155
0.0599176
0.0555706
0.0520002
0.0491099
0.0468187
0.0450598
0.0437792
0.0429347
0.0425066
0.0426214
3916.34
-549.135
-299.774
-85.8039
-17.2225
2.74182
9.42706
12.4614
14.3937
15.9327
17.2832
18.5036
19.6081
20.5985
21.4731
22.23
22.8681
23.3872
23.7881
24.0728
24.244
24.3057
24.2624
24.1194
23.8826
23.5583
23.1533
22.6747
22.1296
21.5255
20.8697
20.1696
19.4323
18.6649
17.8742
17.0667
16.2485
15.4256
14.6032
13.7865
12.9798
12.1874
11.4128
10.6592
9.92942
9.22569
8.54991
7.90355
7.28772
6.70317
6.15032
5.62929
5.13995
4.68189
4.25454
3.85711
3.48867
3.14817
2.83444
2.54624
2.28228
2.04121
1.82169
1.62235
1.44184
1.27883
1.13203
1.00019
0.882096
0.776595
0.682594
0.599057
0.525013
0.459552
0.401827
0.351054
0.30651
0.267531
0.233507
0.203886
0.178165
0.155888
0.136647
0.120074
0.10584
0.0936526
0.0832522
0.0744094
0.0669225
0.060615
0.0553331
0.050944
0.0473335
0.0444049
0.042077
0.0402827
0.0389679
0.0380905
0.0376294
0.0376889
3916.34
-549.14
-299.781
-85.8124
-17.2326
2.73065
9.41506
12.4484
14.3797
15.9176
17.2671
18.4866
19.5904
20.5803
21.4545
22.2113
22.8494
23.3686
23.7699
24.055
24.2268
24.2892
24.2467
24.1046
23.8688
23.5455
23.1416
22.6641
22.1201
21.5171
20.8624
20.1633
19.4271
18.6607
17.8709
17.0643
16.247
15.4248
14.6032
13.787
12.9809
12.189
11.4148
10.6616
9.93203
9.2285
8.55286
7.90658
7.29077
6.70619
6.15327
5.63212
5.14262
4.68439
4.25683
3.85917
3.49048
3.14972
2.83572
2.54724
2.283
2.04165
1.82185
1.62223
1.44146
1.27819
1.13115
0.999066
0.880743
0.775027
0.680822
0.597094
0.522871
0.457242
0.399361
0.348444
0.303767
0.264664
0.230527
0.200802
0.174985
0.15262
0.133299
0.116651
0.102349
0.0900995
0.0796415
0.0707456
0.0632095
0.0568561
0.0515315
0.0471024
0.0434543
0.04049
0.0381283
0.0363017
0.0349563
0.0340497
0.0335595
0.033572
3916.33
-549.15
-299.793
-85.8263
-17.2476
2.71565
9.40057
12.4339
14.3645
15.9015
17.2501
18.4687
19.5718
20.5611
21.4349
22.1915
22.8296
23.349
23.7506
24.0362
24.2087
24.2719
24.2302
24.0891
23.8543
23.5321
23.1293
22.653
22.1102
21.5084
20.8548
20.1569
19.4218
18.6565
17.8677
17.0621
16.2457
15.4244
14.6035
13.788
12.9825
12.1911
11.4174
10.6645
9.9353
9.232
8.55652
7.91034
7.29458
6.70999
6.157
5.63575
5.14611
4.6877
4.25993
3.86204
3.4931
3.15207
2.8378
2.54904
2.28451
2.04288
1.82279
1.6229
1.44185
1.27832
1.13101
0.998686
0.880129
0.77419
0.679775
0.595849
0.521441
0.455639
0.397598
0.346532
0.301718
0.262488
0.228235
0.198403
0.172487
0.150033
0.13063
0.113908
0.0995373
0.0872249
0.0767097
0.0677612
0.0601768
0.053779
0.0484132
0.0439458
0.0402621
0.0372647
0.0348717
0.0330158
0.0316427
0.0307101
0.0301945
0.0301674
3916.31
-549.184
-299.825
-85.8555
-17.2754
2.69071
9.37968
12.4158
14.3474
15.8842
17.2321
18.4499
19.5523
20.541
21.4144
22.1708
22.8089
23.3285
23.7304
24.0165
24.1897
24.2536
24.2129
24.0728
23.8391
23.5181
23.1165
22.6414
22.0998
21.4993
20.847
20.1503
19.4164
18.6522
17.8646
17.06
16.2446
15.4241
14.6041
13.7894
12.9845
12.1937
11.4205
10.668
9.93914
9.23611
8.56082
7.91477
7.29907
6.71448
6.16145
5.6401
5.15032
4.69174
4.26377
3.86565
3.49646
3.15516
2.84061
2.55156
2.28674
2.04482
1.82444
1.62425
1.44292
1.27912
1.13155
0.99897
0.880171
0.774003
0.679371
0.595241
0.520642
0.454662
0.396456
0.345237
0.30028
0.26092
0.226547
0.196606
0.17059
0.148045
0.128558
0.11176
0.0973207
0.0849454
0.0743729
0.0653723
0.0577403
0.051299
0.0458933
0.0413893
0.0376719
0.0346432
0.0322214
0.0303387
0.0289406
0.0279851
0.0274475
0.0273871
3916.23
-549.329
-299.936
-85.9299
-17.3343
2.64209
9.34271
12.3882
14.325
15.8639
17.2124
18.43
19.5319
20.5202
21.3933
22.1494
22.7875
23.3073
23.7095
23.9961
24.17
24.2347
24.1949
24.0558
23.8232
23.5034
23.1031
22.6292
22.089
21.4898
20.8388
20.1434
19.4108
18.6478
17.8614
17.0579
16.2435
15.424
14.6049
13.791
12.9868
12.1966
11.4239
10.672
9.94347
9.24074
8.56567
7.91977
7.30415
6.71959
6.16652
5.6451
5.15519
4.69644
4.26827
3.86992
3.50048
3.15892
2.84408
2.55474
2.28962
2.04739
1.82672
1.62624
1.44462
1.28053
1.13269
0.999852
0.880803
0.774398
0.679542
0.595202
0.520406
0.454243
0.395865
0.344488
0.299386
0.259892
0.225396
0.195342
0.169224
0.146586
0.127014
0.110139
0.0956295
0.0831909
0.0725611
0.0635085
0.0558294
0.0493454
0.0439009
0.0393616
0.035612
0.032554
0.0301054
0.0281981
0.0267777
0.0258018
0.0252453
0.0251572
3915.83
-549.994
-300.378
-86.1508
-17.4655
2.5458
9.2715
12.3369
14.287
15.8333
17.1855
18.405
19.5078
20.4964
21.3697
22.126
22.7643
23.2843
23.6871
23.9743
24.1489
24.2145
24.1757
24.0377
23.8063
23.4877
23.0887
22.6162
22.0774
21.4795
20.83
20.1359
19.4046
18.643
17.8578
17.0555
16.2422
15.4238
14.6056
13.7926
12.9892
12.1997
11.4276
10.6762
9.94812
9.24573
8.57092
7.92521
7.30971
6.7252
6.17212
5.65063
5.16061
4.7017
4.27334
3.87477
3.50508
3.16325
2.84813
2.5585
2.29307
2.05054
1.82956
1.62878
1.44687
1.2825
1.13438
1.00127
0.881964
0.775315
0.68023
0.595674
0.520675
0.454322
0.395769
0.34423
0.298978
0.259346
0.224724
0.194555
0.168332
0.145598
0.125939
0.108986
0.094406
0.0819035
0.0712161
0.0621117
0.0543859
0.0478597
0.0423774
0.037804
0.0340236
0.0309379
0.0284643
0.0265346
0.0250941
0.0241004
0.0235276
0.0234169
3913.87
-552.996
-302.262
-86.9201
-17.7793
2.37109
9.1467
12.2398
14.2081
15.7664
17.1265
18.3513
19.4579
20.4492
21.3246
22.0827
22.7227
23.2444
23.649
23.9381
24.1147
24.1824
24.1458
24.01
23.7808
23.4645
23.0676
22.5973
22.0606
21.4647
20.8171
20.125
19.3954
18.6355
17.8519
17.0511
16.2393
15.4221
14.6051
13.7932
12.9908
12.2022
11.4308
10.68
9.95249
9.25056
8.57611
7.93067
7.31536
6.73096
6.17793
5.65642
5.16633
4.7073
4.27878
3.88001
3.5101
3.16801
2.85262
2.56271
2.29699
2.05416
1.83288
1.6318
1.44959
1.28493
1.13653
1.00315
0.883587
0.776692
0.681373
0.596597
0.521391
0.454846
0.396114
0.344409
0.299004
0.259232
0.224481
0.194194
0.167864
0.145033
0.125287
0.108254
0.0936027
0.0810359
0.0702907
0.0611344
0.0533622
0.0467946
0.0412753
0.0366688
0.032859
0.0297471
0.0272503
0.0253001
0.0238417
0.0228324
0.022246
0.0221172
3906.54
-564.821
-309.767
-89.7775
-18.6423
2.08812
8.98805
12.0935
14.0532
15.6022
16.9561
18.178
19.2843
20.2776
21.1566
21.9199
22.5665
23.0961
23.5095
23.8082
23.995
24.0731
24.0468
23.9211
23.7016
23.3945
23.0062
22.5437
22.0142
21.4248
20.7831
20.0961
19.3713
18.6154
17.8355
17.0379
16.2289
15.4143
14.5995
13.7895
12.9888
12.2016
11.4315
10.6818
9.95515
9.25397
8.58015
7.93521
7.32028
6.73617
6.18333
5.66193
5.17188
4.71283
4.28422
3.88532
3.51524
3.17296
2.85734
2.56717
2.30119
2.05809
1.83653
1.63517
1.45267
1.28773
1.13906
1.00541
0.885596
0.778458
0.682907
0.597911
0.522499
0.455761
0.39685
0.344977
0.299418
0.259505
0.224624
0.194219
0.167781
0.144852
0.125017
0.107905
0.0931811
0.0805499
0.0697471
0.0605393
0.0527213
0.0461129
0.0405575
0.0359191
0.0320812
0.0289446
0.0264263
0.0244575
0.0229832
0.0219606
0.0213631
0.0212208
3913.47
-592.146
-331.493
-98.1907
-20.7206
1.80771
9.00465
12.0623
13.9197
15.3676
16.633
17.7833
18.837
19.7965
20.6591
21.4208
22.0778
22.6275
23.0682
23.3993
23.6216
23.7368
23.7478
23.6586
23.4739
23.1992
22.8407
22.405
21.8994
21.331
20.7073
20.0359
19.3241
18.5793
17.8086
17.0185
16.2157
15.4061
14.5953
13.7885
12.9904
12.2052
11.4367
10.6881
9.96241
9.26188
8.5885
7.94383
7.32905
6.74496
6.19206
5.67052
5.18026
4.72095
4.29204
3.89282
3.52238
3.17972
2.86372
2.57316
2.30679
2.06329
1.84134
1.6396
1.45674
1.29144
1.14243
1.00846
0.888329
0.780898
0.685073
0.59982
0.524169
0.457209
0.398092
0.34603
0.300298
0.260226
0.225201
0.194665
0.168108
0.145072
0.125141
0.107942
0.0931418
0.0804418
0.0695779
0.060316
0.0524502
0.0457997
0.0402073
0.0355366
0.0316707
0.02851
0.025971
0.0239848
0.0224961
0.0214621
0.0208563
0.0207072
4578.53
-461.836
-318.09
-97.9861
-20.6119
2.18138
9.43464
12.5742
14.5805
16.2094
17.653
18.9583
20.1348
21.1825
22.1
22.8865
23.5421
24.0683
24.4675
24.7432
24.8998
24.9424
24.8767
24.709
24.4461
24.095
23.6631
23.1578
22.5867
21.9574
21.2775
20.5543
19.7951
19.007
18.1968
17.3708
16.5353
15.696
14.8582
14.0268
13.2063
12.4007
11.6136
10.8482
10.1071
9.39251
8.70636
8.05006
7.4247
6.83099
6.26935
5.73988
5.24243
4.77661
4.34181
3.93726
3.56202
3.21503
2.89512
2.60105
2.33153
2.0852
1.86072
1.65671
1.47182
1.30472
1.1541
1.01869
0.897293
0.788732
0.691905
0.605766
0.529332
0.461681
0.401955
0.349359
0.303157
0.262673
0.227287
0.196436
0.169605
0.146329
0.12619
0.10881
0.0938534
0.0810182
0.0700376
0.0606754
0.0527233
0.0459992
0.0403439
0.0356199
0.031709
0.0285106
0.0259404
0.0239288
0.0224198
0.0213707
0.0207572
0.0206189
)
;

boundaryField
{
    xmin
    {
        type            calculated;
        value           uniform 0;
    }
    xmax
    {
        type            calculated;
        value           nonuniform List<scalar> 
100
(
4006.21
-404.106
-278.328
-85.7376
-18.0351
1.90913
8.25581
11.003
12.7586
14.184
15.4472
16.5894
17.6189
18.5357
19.3386
20.0268
20.6005
21.061
21.4104
21.6517
21.7887
21.826
21.7686
21.6219
21.3919
21.0848
20.7069
20.2648
19.7651
19.2145
18.6196
17.9868
17.3226
16.633
15.9241
15.2014
14.4703
13.736
13.0029
12.2754
11.5575
10.8527
10.164
9.49423
8.84575
8.22051
7.62014
7.04589
6.4987
5.97922
5.48779
5.02451
4.58925
4.18166
3.80121
3.44724
3.1189
2.81529
2.53537
2.27807
2.04224
1.82671
1.63029
1.45179
1.29001
1.1438
1.01201
0.893535
0.787314
0.692327
0.607609
0.532242
0.465368
0.406179
0.353926
0.307911
0.267491
0.232075
0.201121
0.174134
0.150666
0.130309
0.112698
0.0975017
0.0844259
0.0732073
0.0636121
0.0554337
0.04849
0.0426214
0.0376889
0.033572
0.0301674
0.0273871
0.0251572
0.0234169
0.0221172
0.0212208
0.0207072
0.0206189
)
;
    }
    ymin
    {
        type            calculated;
        value           uniform 0;
    }
    ymax
    {
        type            calculated;
        value           nonuniform List<scalar> 
100
(
4578.53
-461.836
-318.09
-97.9861
-20.6119
2.18138
9.43464
12.5742
14.5805
16.2094
17.653
18.9583
20.1348
21.1825
22.1
22.8865
23.5421
24.0683
24.4675
24.7432
24.8998
24.9424
24.8767
24.709
24.4461
24.095
23.6631
23.1578
22.5867
21.9574
21.2775
20.5543
19.7951
19.007
18.1968
17.3708
16.5353
15.696
14.8582
14.0268
13.2063
12.4007
11.6136
10.8482
10.1071
9.39251
8.70636
8.05006
7.4247
6.83099
6.26935
5.73988
5.24243
4.77661
4.34181
3.93726
3.56202
3.21503
2.89512
2.60105
2.33153
2.0852
1.86072
1.65671
1.47182
1.30472
1.1541
1.01869
0.897293
0.788732
0.691905
0.605766
0.529332
0.461681
0.401955
0.349359
0.303157
0.262673
0.227287
0.196436
0.169605
0.146329
0.12619
0.10881
0.0938534
0.0810182
0.0700376
0.0606754
0.0527233
0.0459992
0.0403439
0.0356199
0.031709
0.0285106
0.0259404
0.0239288
0.0224198
0.0213707
0.0207572
0.0206189
)
;
    }
    frontAndBack
    {
        type            empty;
    }
}


// ************************************************************************* //
