/*--------------------------------*- C++ -*----------------------------------*\
  =========                 |
  \\      /  F ield         | OpenFOAM: The Open Source CFD Toolbox
   \\    /   O peration     | Website:  https://openfoam.org
    \\  /    A nd           | Version:  10
     \\/     M anipulation  |
\*---------------------------------------------------------------------------*/
FoamFile
{
    format      ascii;
    class       volScalarField;
    location    "2";
    object      ddt0(T);
}
// * * * * * * * * * * * * * * * * * * * * * * * * * * * * * * * * * * * * * //

dimensions      [0 0 -1 1 0 0 0];

internalField   nonuniform List<scalar> 
10000
(
8093.43
4282.61
4170.14
4229.74
4253.92
4261.25
4263.46
4264.24
4264.6
4264.82
4265
4265.15
4265.28
4265.39
4265.49
4265.57
4265.63
4265.67
4265.71
4265.73
4265.73
4265.73
4265.72
4265.7
4265.67
4265.64
4265.61
4265.57
4265.53
4265.49
4265.45
4265.41
4265.37
4265.33
4265.3
4265.27
4265.23
4265.21
4265.18
4265.16
4265.13
4265.11
4265.1
4265.08
4265.07
4265.06
4265.05
4265.04
4265.03
4265.02
4265.02
4265.01
4265.01
4265.01
4265
4265
4265
4265
4265
4264.99
4264.99
4264.99
4264.99
4264.99
4264.99
4264.99
4264.99
4264.99
4264.99
4264.99
4264.99
4264.99
4264.99
4264.99
4264.99
4264.99
4264.99
4264.99
4264.99
4264.99
4264.99
4264.99
4264.99
4264.99
4264.99
4264.99
4264.99
4264.99
4264.98
4264.98
4264.98
4264.97
4264.96
4264.93
4264.81
4264.31
4262.36
4257.98
4293.25
5104.56
4920.79
-643.948
-731.594
-572.264
-507.391
-486.986
-480.665
-478.429
-477.383
-476.711
-476.183
-475.735
-475.347
-475.015
-474.734
-474.503
-474.321
-474.183
-474.088
-474.031
-474.009
-474.018
-474.054
-474.112
-474.189
-474.281
-474.385
-474.497
-474.615
-474.735
-474.856
-474.975
-475.091
-475.203
-475.309
-475.409
-475.502
-475.589
-475.668
-475.74
-475.805
-475.864
-475.916
-475.962
-476.002
-476.038
-476.069
-476.095
-476.118
-476.138
-476.154
-476.168
-476.18
-476.19
-476.198
-476.204
-476.21
-476.214
-476.218
-476.221
-476.223
-476.224
-476.226
-476.226
-476.227
-476.227
-476.227
-476.227
-476.227
-476.227
-476.226
-476.226
-476.226
-476.225
-476.225
-476.225
-476.225
-476.225
-476.225
-476.226
-476.226
-476.228
-476.23
-476.232
-476.235
-476.239
-476.243
-476.248
-476.255
-476.262
-476.271
-476.284
-476.31
-476.382
-476.641
-477.638
-481.332
-492.735
-507.292
-333.911
4801.61
-754.454
-720.955
-496.169
-406.327
-377.472
-368.273
-364.902
-363.261
-362.176
-361.311
-360.572
-359.932
-359.381
-358.917
-358.535
-358.233
-358.006
-357.848
-357.755
-357.719
-357.734
-357.793
-357.891
-358.019
-358.173
-358.345
-358.532
-358.727
-358.927
-359.128
-359.326
-359.519
-359.705
-359.882
-360.048
-360.203
-360.347
-360.479
-360.599
-360.707
-360.804
-360.891
-360.968
-361.035
-361.094
-361.145
-361.189
-361.227
-361.26
-361.287
-361.311
-361.33
-361.346
-361.36
-361.371
-361.38
-361.387
-361.393
-361.398
-361.401
-361.404
-361.406
-361.408
-361.409
-361.409
-361.409
-361.409
-361.409
-361.408
-361.408
-361.407
-361.406
-361.406
-361.405
-361.405
-361.404
-361.405
-361.405
-361.406
-361.408
-361.41
-361.413
-361.416
-361.421
-361.427
-361.434
-361.443
-361.453
-361.465
-361.479
-361.499
-361.532
-361.611
-361.853
-362.691
-365.592
-374.708
-395.656
-390.278
4845.46
-625.898
-530.696
-276.042
-174.244
-140.927
-129.987
-125.799
-123.658
-122.191
-121.005
-119.986
-119.101
-118.341
-117.7
-117.174
-116.758
-116.446
-116.231
-116.104
-116.058
-116.082
-116.167
-116.305
-116.486
-116.701
-116.944
-117.205
-117.478
-117.758
-118.038
-118.315
-118.585
-118.845
-119.091
-119.324
-119.541
-119.741
-119.925
-120.093
-120.244
-120.379
-120.5
-120.607
-120.702
-120.784
-120.855
-120.917
-120.97
-121.016
-121.054
-121.087
-121.114
-121.136
-121.155
-121.171
-121.183
-121.194
-121.202
-121.208
-121.213
-121.217
-121.22
-121.222
-121.223
-121.224
-121.224
-121.224
-121.223
-121.223
-121.222
-121.221
-121.22
-121.219
-121.218
-121.217
-121.217
-121.217
-121.218
-121.219
-121.221
-121.224
-121.228
-121.233
-121.239
-121.248
-121.257
-121.269
-121.283
-121.299
-121.319
-121.343
-121.38
-121.45
-121.625
-122.138
-123.727
-128.422
-139.656
-149.946
4864.66
-571.985
-453.931
-187.752
-80.875
-45.3785
-33.4104
-28.628
-26.0588
-24.2409
-22.7493
-21.4617
-20.3428
-19.3813
-18.5715
-17.9081
-17.3845
-16.993
-16.7244
-16.5683
-16.5137
-16.549
-16.6623
-16.842
-17.0764
-17.3548
-17.6667
-18.0026
-18.354
-18.7131
-19.0732
-19.4287
-19.7747
-20.1074
-20.4238
-20.7217
-20.9996
-21.2565
-21.4921
-21.7066
-21.9003
-22.0741
-22.229
-22.3661
-22.4866
-22.592
-22.6836
-22.7627
-22.8307
-22.8887
-22.9379
-22.9794
-23.0143
-23.0433
-23.0674
-23.0872
-23.1033
-23.1164
-23.1269
-23.1352
-23.1416
-23.1465
-23.1501
-23.1526
-23.1543
-23.1552
-23.1555
-23.1553
-23.1547
-23.1537
-23.1526
-23.1514
-23.1501
-23.1488
-23.1477
-23.1469
-23.1464
-23.1464
-23.147
-23.1484
-23.1508
-23.1542
-23.159
-23.1653
-23.1733
-23.1833
-23.1954
-23.2099
-23.2271
-23.2473
-23.2712
-23.3005
-23.3399
-23.403
-23.5275
-23.8197
-24.576
-26.5495
-30.9657
-36.4725
4870.67
-554.776
-429.095
-158.703
-49.6956
-13.092
-0.466318
4.7818
7.7282
9.87278
11.6533
13.196
14.5376
15.6899
16.6592
17.452
18.076
18.5406
18.8572
19.038
19.0966
19.0469
18.9032
18.6797
18.3903
18.0482
17.6659
17.2549
16.8255
16.3871
15.9477
15.5143
15.0926
14.6873
14.3019
13.9392
13.601
13.2883
13.0016
12.7407
12.505
12.2936
12.1053
11.9386
11.792
11.6638
11.5524
11.4563
11.3737
11.3032
11.2434
11.1929
11.1505
11.1152
11.086
11.0619
11.0423
11.0264
11.0136
11.0036
10.9957
10.9898
10.9854
10.9823
10.9803
10.9792
10.9789
10.9791
10.9799
10.981
10.9824
10.9839
10.9855
10.9871
10.9885
10.9897
10.9904
10.9905
10.99
10.9885
10.9859
10.9819
10.9765
10.9692
10.9599
10.9484
10.9343
10.9174
10.8973
10.8738
10.8461
10.8131
10.7714
10.7122
10.6138
10.4275
10.047
9.2516
7.73992
5.64587
4872.55
-549.335
-421.051
-149.019
-39.0111
-1.75442
11.3515
16.9923
20.2802
22.7289
24.781
26.564
28.1148
29.4457
30.5637
31.476
32.1918
32.7221
33.08
33.2801
33.338
33.2701
33.093
32.8234
32.4773
32.0702
31.6167
31.1302
30.6227
30.1051
29.5869
29.0761
28.5794
28.1021
27.6486
27.2219
26.8241
26.4565
26.1194
25.8127
25.5358
25.2874
25.0661
24.8703
24.6981
24.5476
24.4168
24.3039
24.2069
24.1242
24.0539
23.9946
23.9449
23.9035
23.8691
23.8409
23.8178
23.7991
23.7842
23.7724
23.7632
23.7562
23.751
23.7474
23.745
23.7438
23.7433
23.7436
23.7445
23.7458
23.7475
23.7494
23.7513
23.7533
23.755
23.7565
23.7575
23.7579
23.7574
23.756
23.7533
23.7491
23.7431
23.7352
23.725
23.7121
23.6964
23.6775
23.6551
23.6288
23.5981
23.5622
23.5189
23.4626
23.3801
23.244
23.0095
22.6242
22.0941
21.4486
4873.23
-547.335
-417.998
-145.182
-34.588
3.13369
16.6331
22.6216
26.2226
28.9539
31.2589
33.2655
35.0105
36.5064
37.7607
38.7815
39.5793
40.1668
40.5588
40.7719
40.8239
40.7336
40.5197
40.2012
39.7965
39.3231
38.7976
38.2351
37.6495
37.053
36.4564
35.8688
35.2979
34.7496
34.2288
33.739
33.2826
32.8609
32.4743
32.1227
31.8052
31.5206
31.267
31.0427
30.8454
30.673
30.5232
30.3939
30.2829
30.1881
30.1077
30.0398
29.9829
29.9354
29.8961
29.8638
29.8374
29.816
29.7989
29.7853
29.7748
29.7668
29.7608
29.7567
29.754
29.7525
29.752
29.7524
29.7534
29.7549
29.7568
29.759
29.7614
29.7637
29.7658
29.7677
29.769
29.7697
29.7695
29.7682
29.7656
29.7613
29.7551
29.7468
29.7359
29.7222
29.7053
29.6849
29.6606
29.6322
29.5991
29.5607
29.5159
29.4614
29.3887
29.2793
29.1012
28.8291
28.5512
28.5193
4873.57
-546.345
-416.432
-143.121
-32.0988
6.00324
19.8471
26.1503
30.0387
33.0304
35.5687
37.7809
39.7036
41.3495
42.7265
43.8438
44.713
45.3484
45.7664
45.9858
46.0263
45.9089
45.6546
45.2845
44.8191
44.278
43.6796
43.0408
42.3771
41.702
41.0277
40.3641
39.7197
39.1014
38.5145
37.9627
37.4486
36.9738
36.5388
36.1432
35.7861
35.4659
35.1808
34.9286
34.7068
34.5131
34.3448
34.1994
34.0747
33.9682
33.8779
33.8016
33.7377
33.6844
33.6402
33.6039
33.5742
33.5502
33.531
33.5157
33.5039
33.4949
33.4882
33.4835
33.4805
33.4788
33.4782
33.4786
33.4798
33.4816
33.4838
33.4863
33.489
33.4917
33.4942
33.4965
33.4983
33.4994
33.4995
33.4985
33.4961
33.492
33.4858
33.4773
33.4662
33.4519
33.4343
33.413
33.3875
33.3575
33.3226
33.2824
33.2361
33.1819
33.1146
33.02
32.8665
32.6121
32.3388
32.644
4873.8
-545.677
-415.349
-141.653
-30.2724
8.16231
22.3154
28.9046
33.0554
36.2849
39.0355
41.434
43.5168
45.2967
46.7821
47.983
48.9123
49.5856
50.0213
50.2397
50.2629
50.1135
49.815
49.3904
48.8622
48.252
47.5799
46.8645
46.1228
45.3697
44.6182
43.8795
43.1629
42.4757
41.8237
41.2111
40.6407
40.114
39.6316
39.193
38.7972
38.4424
38.1266
37.8472
37.6016
37.3871
37.2008
37.0399
36.9018
36.784
36.684
36.5996
36.5288
36.4698
36.421
36.3808
36.3479
36.3214
36.3001
36.2832
36.2701
36.2601
36.2527
36.2475
36.2441
36.2422
36.2416
36.2421
36.2433
36.2453
36.2478
36.2506
36.2537
36.2568
36.2599
36.2626
36.2649
36.2664
36.2671
36.2665
36.2645
36.2607
36.2548
36.2465
36.2353
36.221
36.2032
36.1814
36.1553
36.1244
36.0885
36.047
35.9996
35.9452
35.8805
35.7943
35.6538
35.393
35.0502
35.5999
4873.98
-545.137
-414.463
-140.435
-28.74
9.99196
24.4236
31.2714
35.6592
39.103
42.0442
44.609
46.8335
48.7305
50.3093
51.5805
52.558
53.2591
53.7036
53.9138
53.9133
53.7272
53.3806
52.8986
52.3056
51.6249
50.8784
50.0862
49.2667
48.4361
47.6084
46.7957
46.0079
45.2531
44.5375
43.8654
43.2399
42.6626
42.134
41.6536
41.2201
40.8318
40.4861
40.1803
39.9117
39.6769
39.4731
39.2972
39.1462
39.0174
38.908
38.8158
38.7385
38.674
38.6205
38.5766
38.5407
38.5116
38.4883
38.4699
38.4555
38.4446
38.4365
38.4308
38.427
38.425
38.4243
38.4248
38.4262
38.4284
38.4311
38.4343
38.4378
38.4413
38.4448
38.4481
38.4509
38.453
38.4542
38.4542
38.4528
38.4495
38.4441
38.4363
38.4255
38.4116
38.3939
38.3723
38.3461
38.3151
38.2789
38.237
38.1891
38.1346
38.0713
37.9903
37.8584
37.5897
37.1652
37.9135
4874.14
-544.669
-413.692
-139.371
-27.396
11.6017
26.2826
33.3616
37.9606
41.5947
44.7041
47.4144
49.7617
51.7589
53.4155
54.7432
55.7571
56.4755
56.92
57.1144
57.0843
56.8565
56.458
55.9157
55.2559
54.5035
53.682
52.813
51.9162
51.0087
50.1058
49.2203
48.3628
47.5418
46.7639
46.0338
45.3547
44.7282
44.1547
43.6337
43.1638
42.7429
42.3683
42.037
41.746
41.4918
41.2711
41.0807
40.9172
40.7777
40.6594
40.5596
40.4759
40.4061
40.3483
40.3007
40.2619
40.2304
40.2052
40.1852
40.1696
40.1578
40.149
40.1427
40.1387
40.1364
40.1357
40.1362
40.1377
40.1401
40.1431
40.1466
40.1505
40.1545
40.1585
40.1623
40.1657
40.1685
40.1703
40.1711
40.1703
40.1678
40.1632
40.156
40.146
40.1328
40.1158
40.0948
40.0692
40.0388
40.0029
39.9614
39.9139
39.8599
39.798
39.7209
39.596
39.3233
38.8282
39.7367
4874.27
-544.258
-413.013
-138.433
-26.21
13.0227
27.924
35.2065
39.991
43.7909
47.046
49.881
52.332
54.4119
56.131
57.5015
58.5396
59.265
59.7006
59.8718
59.8061
59.5318
59.0777
58.4725
57.7441
56.919
56.0221
55.0765
54.1028
53.1195
52.1426
51.1856
50.2598
49.3743
48.5357
47.7492
47.018
46.3437
45.7268
45.1665
44.6614
44.209
43.8065
43.4507
43.1381
42.8651
42.6282
42.4238
42.2483
42.0986
41.9717
41.8645
41.7747
41.6998
41.6378
41.5868
41.5451
41.5113
41.4842
41.4628
41.4461
41.4333
41.4238
41.4171
41.4127
41.4103
41.4094
41.41
41.4116
41.4141
41.4174
41.4213
41.4256
41.43
41.4346
41.4389
41.443
41.4464
41.449
41.4506
41.4507
41.4491
41.4454
41.4393
41.4303
41.4181
41.4023
41.3824
41.358
41.3287
41.294
41.2537
41.2073
41.1547
41.0947
41.0211
40.9028
40.6309
40.0842
41.1149
4874.39
-543.898
-412.418
-137.612
-25.1728
14.265
29.3578
36.8166
41.7606
45.7023
49.0804
52.0194
54.5551
56.7007
58.4668
59.8666
60.9171
61.6392
62.0574
62.1984
62.0912
61.7658
61.2528
60.5822
59.7836
58.8849
57.9125
56.8905
55.8408
54.7827
53.7331
52.7062
51.7138
50.7654
49.8679
49.0267
48.245
47.5246
46.8657
46.2676
45.7285
45.2458
44.8165
44.4371
44.1038
43.8129
43.5603
43.3425
43.1555
42.9961
42.8608
42.7467
42.651
42.5713
42.5052
42.4509
42.4064
42.3705
42.3416
42.3187
42.3009
42.2872
42.2771
42.2699
42.2652
42.2626
42.2616
42.2622
42.2639
42.2666
42.2702
42.2743
42.279
42.2839
42.289
42.2939
42.2986
42.3028
42.3063
42.3087
42.3098
42.3092
42.3067
42.3018
42.2942
42.2834
42.2691
42.2508
42.2281
42.2005
42.1677
42.1293
42.085
42.0345
41.9771
41.9074
41.7957
41.5287
40.9513
42.0669
4874.5
-543.588
-411.906
-136.905
-24.2794
15.334
30.59
38.1982
43.2763
47.3359
50.8149
53.8375
56.4393
58.6339
60.4321
61.848
62.8995
63.6086
64.0011
64.105
63.951
63.5704
62.9952
62.2571
61.387
60.4142
59.3663
58.2685
57.1437
56.0122
54.8914
53.7963
52.7391
51.7296
50.7751
49.881
49.0506
48.2857
47.5865
46.952
46.3802
45.8684
45.4134
45.0114
44.6583
44.3501
44.0827
43.852
43.6541
43.4853
43.3422
43.2214
43.1202
43.0358
42.9658
42.9083
42.8613
42.8232
42.7926
42.7684
42.7495
42.735
42.7242
42.7166
42.7115
42.7087
42.7076
42.7082
42.71
42.7129
42.7166
42.7211
42.7261
42.7315
42.7371
42.7426
42.748
42.753
42.7573
42.7607
42.7628
42.7635
42.7623
42.7588
42.7528
42.7437
42.7312
42.7149
42.6943
42.6691
42.6387
42.6029
42.5614
42.5139
42.4598
42.3945
42.2898
42.0315
41.4426
42.6084
4874.59
-543.326
-411.473
-136.308
-23.5254
16.2349
31.6267
39.3581
44.5457
48.7001
52.2587
55.3453
57.9954
60.2228
62.0389
63.4583
64.4999
65.1868
65.5458
65.6064
65.4005
64.9608
64.3208
63.5134
62.5708
61.5237
60.4005
59.2278
58.0291
56.8256
55.6354
54.4739
53.3539
52.2853
51.2757
50.3306
49.4535
48.6458
47.9078
47.2384
46.6354
46.0959
45.6163
45.1927
44.8207
44.4961
44.2145
43.9716
43.7633
43.5856
43.4349
43.3078
43.2013
43.1125
43.0389
42.9783
42.9288
42.8887
42.8565
42.831
42.811
42.7957
42.7843
42.7762
42.7709
42.7678
42.7667
42.7672
42.769
42.772
42.776
42.7808
42.7861
42.7919
42.798
42.8042
42.8103
42.816
42.8212
42.8256
42.8289
42.8309
42.8311
42.8292
42.8249
42.8178
42.8075
42.7935
42.7755
42.753
42.7256
42.693
42.6549
42.6111
42.5611
42.5008
42.4037
42.1572
41.5733
42.7585
4874.66
-543.11
-411.115
-135.815
-22.9052
16.9746
32.4759
40.3054
45.579
49.8062
53.424
56.5559
59.2373
61.4823
63.3028
64.714
65.7356
66.3917
66.7101
66.7217
66.4594
65.9573
65.2501
64.3721
63.3564
62.235
61.0373
59.7906
58.5195
57.2457
55.9879
54.7621
53.5813
52.4557
51.3931
50.3991
49.477
48.6284
47.8534
47.1507
46.5179
45.9519
45.4489
45.0047
44.6148
44.2747
43.9796
43.7251
43.5069
43.3207
43.1629
43.0298
42.9183
42.8253
42.7482
42.6848
42.633
42.5909
42.5572
42.5304
42.5095
42.4934
42.4814
42.4728
42.4672
42.4639
42.4626
42.4631
42.465
42.4681
42.4723
42.4773
42.4829
42.4892
42.4957
42.5025
42.5092
42.5158
42.5219
42.5273
42.5318
42.5351
42.5368
42.5367
42.5343
42.5293
42.5213
42.5099
42.4948
42.4754
42.4515
42.4226
42.3885
42.349
42.3037
42.2489
42.16
41.9282
41.3629
42.5407
4874.72
-542.937
-410.83
-135.423
-22.4118
17.5614
33.1473
41.0515
46.3887
50.668
54.3258
57.4855
60.1825
62.431
64.2434
65.6355
66.6278
67.2452
67.5167
67.4742
67.1517
66.5844
65.8083
64.8586
63.7697
62.5743
61.303
59.9837
58.6418
57.2996
55.9764
54.6884
53.4489
52.2686
51.1552
50.1142
49.1492
48.2616
47.4513
46.7169
46.0558
45.4646
44.9395
44.4758
44.0689
43.714
43.4062
43.1407
42.9131
42.7191
42.5545
42.4158
42.2995
42.2025
42.1222
42.056
42.002
41.9582
41.923
41.895
41.8731
41.8563
41.8437
41.8347
41.8287
41.8252
41.8238
41.8242
41.8261
41.8293
41.8336
41.8389
41.8448
41.8514
41.8584
41.8657
41.8731
41.8804
41.8874
41.8939
41.8996
41.9043
41.9076
41.9092
41.9088
41.9061
41.9006
41.892
41.88
41.864
41.8438
41.8191
41.7894
41.7547
41.7147
41.666
41.5857
41.3708
40.8347
41.9833
4874.76
-542.805
-410.612
-135.124
-22.0369
18.0054
33.6527
41.6094
46.9897
51.3019
54.982
58.1533
60.8513
63.0904
64.8833
66.2465
67.2011
67.7731
67.9921
67.8911
67.5051
66.8706
66.0242
65.0023
63.8404
62.5718
61.228
59.8378
58.427
57.0185
55.632
54.2842
52.9884
51.7556
50.5936
49.5079
48.502
47.5773
46.7335
45.9689
45.281
44.6661
44.12
43.6379
43.215
42.8461
42.5263
42.2505
42.0141
41.8126
41.6417
41.4976
41.3769
41.2762
41.1928
41.1241
41.068
41.0224
40.9858
40.9567
40.934
40.9164
40.9033
40.8939
40.8875
40.8838
40.8822
40.8826
40.8845
40.8877
40.8921
40.8975
40.9038
40.9107
40.9181
40.9259
40.9339
40.9419
40.9498
40.9573
40.9642
40.9702
40.9751
40.9785
40.9802
40.9798
40.9769
40.9713
40.9624
40.9501
40.9339
40.9135
40.8886
40.8591
40.8247
40.7824
40.7113
40.5151
40.016
41.1178
4874.79
-542.71
-410.456
-134.911
-21.7714
18.3177
34.005
41.9942
47.3986
51.7261
55.4125
58.5808
61.2666
63.4846
65.2479
66.5735
67.4832
68.0037
68.1655
68.0025
67.5506
66.847
65.9297
64.8357
63.6012
62.2606
60.8459
59.3866
57.909
56.4365
54.9891
53.5838
52.2342
50.9512
49.7429
48.6148
47.5701
46.6101
45.7346
44.9417
44.2284
43.5911
43.0252
42.5258
42.0877
41.7058
41.3747
41.0893
40.8446
40.636
40.4592
40.3102
40.1852
40.0811
39.9948
39.9237
39.8656
39.8185
39.7806
39.7504
39.7268
39.7086
39.6949
39.685
39.6784
39.6744
39.6727
39.6729
39.6748
39.678
39.6825
39.6881
39.6945
39.7017
39.7094
39.7177
39.7263
39.735
39.7437
39.7521
39.7602
39.7675
39.7739
39.7791
39.7829
39.7848
39.7846
39.7819
39.7764
39.7677
39.7556
39.7397
39.7198
39.6957
39.6672
39.6316
39.5699
39.3935
38.9368
39.9788
4874.81
-542.65
-410.356
-134.776
-21.6052
18.5105
34.2185
42.2219
47.6333
51.9604
55.6386
58.7909
61.4529
63.6396
65.3644
66.6449
67.5036
67.9676
68.0683
67.8405
67.3207
66.5473
65.5587
64.393
63.087
61.6758
60.1921
58.6657
57.1237
55.5896
54.0839
52.6236
51.2227
49.8921
48.6398
47.4714
46.39
45.3968
44.4914
43.6717
42.9346
42.2762
41.6917
41.1761
40.724
40.3298
39.9881
39.6936
39.4412
39.2261
39.0438
38.8901
38.7612
38.6538
38.5648
38.4915
38.4316
38.3829
38.3438
38.3127
38.2882
38.2693
38.2552
38.2449
38.2379
38.2336
38.2318
38.2318
38.2336
38.2369
38.2414
38.247
38.2536
38.261
38.2691
38.2778
38.2868
38.2961
38.3056
38.3149
38.324
38.3327
38.3406
38.3475
38.3532
38.3574
38.3598
38.36
38.3579
38.3529
38.3449
38.3336
38.3187
38.3001
38.2775
38.2487
38.1966
38.0406
37.6295
38.6025
4874.82
-542.62
-410.307
-134.711
-21.5278
18.5964
34.308
42.3094
47.7128
52.0256
55.6829
58.8077
61.4358
63.5824
65.2613
66.4904
67.2928
67.6964
67.7331
67.4384
66.8498
66.0061
64.9466
63.7101
62.334
60.854
59.3033
57.7122
56.1082
54.5151
52.9537
51.4411
49.9915
48.6157
47.3219
46.1154
44.9995
43.9751
43.0415
42.1967
41.4373
40.7592
40.1574
39.6266
39.1612
38.7556
38.4041
38.1012
37.8416
37.6204
37.4329
37.2748
37.1423
37.0319
36.9404
36.865
36.8034
36.7533
36.7131
36.681
36.6557
36.6363
36.6216
36.6109
36.6036
36.5991
36.597
36.5969
36.5986
36.6018
36.6063
36.612
36.6187
36.6263
36.6346
36.6436
36.653
36.6629
36.673
36.6832
36.6933
36.703
36.7123
36.7209
36.7285
36.7349
36.7398
36.7429
36.7439
36.7426
36.7387
36.7318
36.7219
36.7087
36.6921
36.6701
36.6273
36.4919
36.1276
37.026
4874.83
-542.617
-410.303
-134.708
-21.5283
18.5885
34.2887
42.274
47.6563
51.9427
55.5682
58.6559
61.2416
63.3407
64.9674
66.14
66.8822
67.2222
67.1929
66.8302
66.1722
65.2585
64.129
62.823
61.3785
59.8318
58.2165
56.5633
54.9
53.2506
51.6362
50.0741
48.5783
47.1599
45.8269
44.5847
43.4363
42.3826
41.4227
40.5545
39.7742
39.0777
38.4597
37.9148
37.4371
37.0209
36.6603
36.3495
36.0833
35.8564
35.6641
35.502
35.3662
35.2529
35.1591
35.0818
35.0186
34.9672
34.9259
34.8929
34.867
34.8469
34.8317
34.8206
34.813
34.8082
34.8059
34.8057
34.8073
34.8104
34.8148
34.8205
34.8272
34.8349
34.8434
34.8526
34.8625
34.8728
34.8834
34.8943
34.9053
34.9161
34.9267
34.9367
34.9461
34.9545
34.9618
34.9676
34.9717
34.9738
34.9738
34.9713
34.9662
34.9583
34.9474
34.932
34.8984
34.783
34.4654
35.2866
4874.82
-542.637
-410.337
-134.758
-21.5961
18.4998
34.1757
42.1329
47.483
51.7328
55.3175
58.36
60.8962
62.9419
64.5115
65.6237
66.3027
66.5772
66.4806
66.0493
65.3222
64.3393
63.1411
61.7673
60.2566
58.6456
56.9682
55.2556
53.5358
51.833
50.1684
48.5594
47.0202
45.5617
44.192
42.9163
41.7375
40.6565
39.6721
38.782
37.9824
37.2687
36.6357
36.0777
35.5887
35.1626
34.7935
34.4755
34.2031
33.971
33.7743
33.6085
33.4696
33.3537
33.2578
33.1787
33.114
33.0614
33.0191
32.9853
32.9587
32.938
32.9224
32.9109
32.9029
32.8979
32.8954
32.8949
32.8963
32.8993
32.9037
32.9093
32.9161
32.9238
32.9324
32.9418
32.9518
32.9625
32.9736
32.9851
32.9968
33.0086
33.0203
33.0317
33.0426
33.0529
33.0623
33.0706
33.0776
33.083
33.0867
33.0883
33.0877
33.0848
33.0795
33.0702
33.0454
32.9492
32.6768
33.4207
4874.81
-542.676
-410.403
-134.852
-21.7206
18.343
33.9838
41.9029
47.2116
51.4166
54.953
57.9438
60.4251
62.4128
63.9216
64.9707
65.5845
65.7923
65.628
65.1285
64.333
63.2823
62.017
60.5777
59.0032
57.3304
55.5938
53.8247
52.0512
50.2979
48.586
46.933
45.353
43.857
42.4529
41.146
39.9389
38.8324
37.8253
36.9149
36.0973
35.3678
34.7209
34.1508
33.6513
33.2161
32.8392
32.5146
32.2365
31.9996
31.7988
31.6296
31.4878
31.3696
31.2716
31.1909
31.1248
31.0712
31.0279
30.9933
30.9661
30.9449
30.9288
30.917
30.9087
30.9034
30.9006
30.8999
30.9011
30.904
30.9082
30.9138
30.9204
30.9281
30.9367
30.9462
30.9565
30.9674
30.9788
30.9908
31.0031
31.0157
31.0283
31.0409
31.0532
31.0652
31.0765
31.0871
31.0967
31.1051
31.1121
31.1175
31.1212
31.123
31.1228
31.1194
31.1028
31.0246
30.7948
31.4633
4874.79
-542.732
-410.496
-134.983
-21.8917
18.1304
33.7274
41.6003
46.8603
51.0139
54.4963
57.4304
59.8526
61.779
63.2246
64.2088
64.7564
64.8974
64.6656
64.0987
63.2363
62.1195
60.7894
59.2869
57.6513
55.9196
54.1267
52.3041
50.48
48.6792
46.9228
45.2285
43.6104
42.0794
40.6434
39.3074
38.0741
36.944
35.9158
34.9866
34.1525
33.4084
32.7487
32.1675
31.6583
31.2148
30.8307
30.5
30.2167
29.9753
29.7708
29.5985
29.4541
29.3337
29.2339
29.1517
29.0844
29.0296
28.9855
28.9502
28.9224
28.9007
28.8842
28.872
28.8634
28.8578
28.8547
28.8539
28.8549
28.8575
28.8616
28.867
28.8735
28.8811
28.8897
28.8992
28.9095
28.9206
28.9323
28.9446
28.9574
28.9706
28.984
28.9975
29.0111
29.0245
29.0375
29.0501
29.062
29.0731
29.0831
29.0919
29.0995
29.1055
29.1101
29.112
29.1029
29.0413
28.851
29.4474
4874.76
-542.8
-410.61
-135.144
-22.0997
17.8734
33.4198
41.2403
46.4459
50.5433
53.9673
56.8413
59.2017
61.0647
62.4456
63.3643
63.8457
63.9201
63.622
62.9892
62.0617
60.881
59.4887
57.9258
56.2318
54.4443
52.5982
50.7251
48.8534
47.008
45.2102
43.4774
41.8238
40.2603
38.7947
37.4318
36.1743
35.0224
33.9748
33.0283
32.1789
31.4214
30.75
30.1586
29.6405
29.1894
28.7988
28.4624
28.1743
27.929
27.7211
27.5459
27.3991
27.2767
27.1752
27.0916
27.0232
26.9675
26.9226
26.8866
26.8582
26.8361
26.8192
26.8066
26.7977
26.7918
26.7885
26.7874
26.7881
26.7906
26.7944
26.7996
26.806
26.8135
26.822
26.8314
26.8417
26.8528
26.8646
26.8771
26.8903
26.9039
26.9179
26.9322
26.9468
26.9613
26.9758
26.9901
27.004
27.0174
27.0301
27.042
27.0529
27.0628
27.0716
27.0783
27.0759
27.0293
26.8748
27.4036
4874.74
-542.878
-410.74
-135.326
-22.3358
17.5829
33.0737
40.8372
45.9844
50.022
53.385
56.1966
58.4935
60.2922
61.6081
62.4613
62.8772
62.8863
62.5234
61.8266
60.8364
59.5945
58.1427
56.5223
54.7731
52.9329
51.0367
49.1163
47.2001
45.3132
43.4767
41.7082
40.0217
38.4282
36.9351
35.5475
34.2676
33.0958
32.0303
31.068
30.2047
29.4349
28.7528
28.152
27.6258
27.1678
26.7712
26.4297
26.1373
25.8882
25.6773
25.4995
25.3505
25.2263
25.1233
25.0385
24.969
24.9124
24.8668
24.8302
24.8013
24.7787
24.7614
24.7485
24.7392
24.733
24.7294
24.7281
24.7286
24.7308
24.7344
24.7394
24.7456
24.7528
24.7612
24.7704
24.7806
24.7917
24.8035
24.8161
24.8294
24.8433
24.8578
24.8727
24.888
24.9035
24.9192
24.9349
24.9504
24.9658
24.9807
24.9952
25.0091
25.0223
25.0348
25.0458
25.0493
25.016
24.8934
25.3597
4874.71
-542.963
-410.881
-135.525
-22.5919
17.2685
32.7002
40.4038
45.4901
49.4659
52.7662
55.5145
57.7474
59.4817
60.7331
61.5219
61.8736
61.8192
61.3936
60.6353
59.5851
58.2847
56.7764
55.1017
53.3006
51.4109
49.4678
47.5032
45.5457
43.6202
41.7479
39.9463
38.2296
36.6083
35.0901
33.6797
32.3794
31.1892
30.1074
29.1307
28.2546
27.4736
26.7817
26.1724
25.639
25.1745
24.7725
24.4264
24.1301
23.8777
23.6639
23.4838
23.3328
23.207
23.1026
23.0167
22.9462
22.8889
22.8425
22.8054
22.776
22.753
22.7353
22.722
22.7125
22.706
22.7022
22.7005
22.7008
22.7027
22.7061
22.7108
22.7167
22.7237
22.7318
22.7409
22.7509
22.7618
22.7735
22.7861
22.7995
22.8135
22.8282
22.8435
22.8593
22.8755
22.8921
22.9088
22.9258
22.9427
22.9595
22.9762
22.9925
23.0085
23.0242
23.0388
23.0474
23.0257
22.9311
23.3404
4874.68
-543.053
-411.03
-135.734
-22.8608
16.9391
32.3097
39.9517
44.9759
48.889
52.1263
54.8112
56.9806
58.6514
59.8396
60.5655
60.8551
60.7394
60.2537
59.4367
58.3293
56.9737
55.4122
53.6865
51.8367
49.9008
47.914
45.9084
43.9125
41.9513
40.046
38.2141
36.4694
34.8228
33.2815
31.8503
30.5313
29.3244
28.2278
27.2379
26.3502
25.5591
24.8584
24.2413
23.7012
23.2311
22.8242
22.4739
22.174
21.9186
21.7023
21.52
21.3673
21.2399
21.1344
21.0473
20.976
20.918
20.871
20.8334
20.8035
20.7801
20.7621
20.7485
20.7386
20.7319
20.7278
20.7258
20.7258
20.7274
20.7305
20.7349
20.7406
20.7473
20.7551
20.7639
20.7736
20.7843
20.7959
20.8083
20.8215
20.8356
20.8504
20.8658
20.8819
20.8986
20.9158
20.9334
20.9513
20.9694
20.9877
21.0061
21.0245
21.0428
21.061
21.0786
21.0915
21.0797
21.0093
21.367
4874.65
-543.144
-411.183
-135.948
-23.1361
16.6023
31.9112
39.4911
44.453
48.3037
51.4785
54.101
56.2082
57.8171
58.9439
59.6092
59.8391
59.6648
59.1219
58.2493
57.088
55.6804
54.069
52.2956
50.4005
48.4217
46.3945
44.351
42.3198
40.3258
38.3901
36.5303
34.7602
33.0903
31.5281
30.0779
28.7419
27.5199
26.4098
25.408
24.5098
23.7095
23.0007
22.3768
21.8306
21.3554
20.944
20.59
20.2869
20.0288
19.8102
19.626
19.4717
19.343
19.2363
19.1483
19.0762
19.0175
18.97
18.9319
18.9016
18.8779
18.8595
18.8456
18.8354
18.8284
18.824
18.8218
18.8215
18.8228
18.8256
18.8297
18.835
18.8414
18.8488
18.8573
18.8667
18.877
18.8883
18.9005
18.9135
18.9274
18.9421
18.9576
18.9738
18.9907
19.0082
19.0263
19.0449
19.0639
19.0833
19.103
19.1229
19.143
19.1633
19.1833
19.1997
19.1962
19.1461
19.4578
4874.62
-543.237
-411.336
-136.163
-23.4122
16.2648
31.5123
39.0308
43.9313
47.7207
50.8344
53.3961
55.443
56.9922
58.0601
58.6675
58.8406
58.6108
58.0139
57.089
55.8771
54.421
52.7631
50.9454
49.0082
46.9898
44.9253
42.847
40.7833
38.7593
36.7959
34.9107
33.1174
31.4265
29.8451
28.3778
27.0264
25.7906
24.6683
23.6558
22.7481
21.9396
21.2236
20.5934
20.0419
19.562
19.1466
18.7892
18.4833
18.2227
18.0021
17.8162
17.6604
17.5306
17.4229
17.3341
17.2613
17.2019
17.1539
17.1154
17.0847
17.0606
17.0419
17.0278
17.0173
17.01
17.0053
17.0028
17.0022
17.0032
17.0057
17.0094
17.0144
17.0204
17.0275
17.0355
17.0446
17.0546
17.0655
17.0773
17.09
17.1036
17.1181
17.1334
17.1495
17.1664
17.1841
17.2024
17.2214
17.2409
17.261
17.2816
17.3026
17.324
17.3458
17.3676
17.3867
17.3901
17.357
17.6278
4874.59
-543.328
-411.488
-136.374
-23.6845
15.9323
31.1196
38.5781
43.4189
47.1489
50.2036
52.7069
54.696
56.1882
57.2001
57.7525
57.872
57.59
56.9425
55.9686
54.7097
53.2084
51.5075
49.6489
47.6731
45.6182
43.5196
41.4093
39.3161
37.2646
35.2761
33.3678
31.5534
29.8434
28.2448
26.762
25.3967
24.1486
23.0153
21.9931
21.077
20.261
19.5385
18.9027
18.3464
17.8623
17.4435
17.083
16.7745
16.5118
16.2894
16.102
15.9449
15.8139
15.7053
15.6158
15.5424
15.4825
15.434
15.3951
15.3641
15.3397
15.3207
15.3062
15.2955
15.2879
15.2829
15.2801
15.2792
15.2799
15.282
15.2854
15.29
15.2956
15.3023
15.31
15.3186
15.3281
15.3386
15.35
15.3623
15.3755
15.3896
15.4046
15.4205
15.4372
15.4547
15.473
15.4921
15.5119
15.5323
15.5534
15.5751
15.5974
15.6202
15.6433
15.6644
15.6733
15.6539
15.8887
4874.56
-543.416
-411.635
-136.581
-23.9491
15.6093
30.7385
38.1392
42.9226
46.5956
49.594
52.0416
53.9758
55.4142
56.3732
56.8741
56.9433
56.6126
55.9179
54.8986
53.5962
52.0532
50.3127
48.4165
46.4052
44.317
42.1872
40.048
37.9278
35.8516
33.8402
31.911
30.0777
28.3504
26.7363
25.2395
23.8618
22.6026
21.4595
20.4286
19.5049
18.6822
17.9541
17.3133
16.7526
16.2648
15.8428
15.4797
15.1689
14.9043
14.6802
14.4915
14.3332
14.2013
14.092
14.0017
13.9277
13.8674
13.8185
13.7792
13.7479
13.7232
13.7039
13.6892
13.6782
13.6703
13.6651
13.662
13.6608
13.6612
13.663
13.666
13.6702
13.6754
13.6816
13.6888
13.6969
13.706
13.716
13.7269
13.7387
13.7514
13.765
13.7796
13.795
13.8114
13.8286
13.8467
13.8656
13.8853
13.9058
13.9271
13.9491
13.9718
13.9951
14.019
14.0416
14.0547
14.0463
14.2495
4874.53
-543.501
-411.777
-136.778
-24.2031
15.2995
30.3732
37.7188
42.4476
46.0667
49.0117
51.4068
53.2895
54.6773
55.587
56.0397
56.0622
55.6863
54.9481
53.8869
52.5444
50.9632
49.1864
47.2559
45.2123
43.0938
40.9357
38.7702
36.6257
34.527
32.4951
30.5471
28.6967
26.9539
25.3259
23.8167
22.4278
21.1587
20.0068
18.9683
18.0378
17.2092
16.4759
15.8307
15.2662
14.7752
14.3503
13.9848
13.672
13.4057
13.1802
12.9902
12.831
12.6982
12.5882
12.4973
12.4228
12.3621
12.3128
12.2732
12.2416
12.2166
12.197
12.1821
12.1708
12.1627
12.1572
12.1538
12.1523
12.1524
12.1538
12.1565
12.1603
12.1651
12.1708
12.1775
12.1852
12.1937
12.2031
12.2135
12.2247
12.2369
12.2499
12.2639
12.2788
12.2947
12.3114
12.3291
12.3476
12.367
12.3873
12.4084
12.4303
12.4531
12.4766
12.5008
12.5243
12.5404
12.5407
12.7163
4874.5
-543.582
-411.911
-136.966
-24.444
15.0058
30.0271
37.3207
41.9981
45.5664
48.4615
50.8075
52.6421
53.9829
54.8468
55.255
55.2344
54.8169
54.0386
52.939
51.5599
49.9439
48.134
46.1723
44.0995
41.9535
39.7699
37.5807
35.4143
33.2954
31.245
29.2803
27.4146
25.658
24.0176
22.4972
21.0984
19.8205
18.6608
17.6154
16.6789
15.8452
15.1073
14.4581
13.8903
13.3963
12.9691
12.6014
12.2868
12.019
11.7923
11.6012
11.4411
11.3076
11.1969
11.1055
11.0306
10.9694
10.9198
10.8799
10.848
10.8228
10.803
10.7878
10.7764
10.768
10.7622
10.7586
10.7568
10.7565
10.7576
10.7599
10.7632
10.7676
10.7729
10.7791
10.7863
10.7942
10.8031
10.8128
10.8234
10.835
10.8474
10.8607
10.875
10.8902
10.9063
10.9233
10.9413
10.9602
10.98
11.0007
11.0223
11.0448
11.0682
11.0923
11.116
11.1343
11.1411
11.2927
4874.48
-543.658
-412.037
-137.143
-24.6702
14.7301
29.7023
36.9474
41.5769
45.098
47.9467
50.2473
52.0374
53.3348
54.1564
54.5237
54.4636
54.008
53.1932
52.0587
50.6462
48.9986
47.1588
45.169
43.0697
40.8991
38.6925
36.482
34.296
32.1591
30.0923
28.1124
26.2331
24.4643
22.8128
21.2826
19.875
18.5892
17.4227
16.3713
15.4295
14.5911
13.8492
13.1966
12.6258
12.1293
11.6998
11.3303
11.0142
10.745
10.5172
10.3252
10.1643
10.0301
9.91884
9.82703
9.75168
9.69018
9.64031
9.60012
9.56798
9.5425
9.52253
9.5071
9.49541
9.48682
9.48078
9.47689
9.47478
9.47421
9.47496
9.47688
9.47985
9.48378
9.48863
9.49435
9.50092
9.50833
9.51658
9.52568
9.53564
9.54647
9.55818
9.57079
9.58432
9.59876
9.61414
9.63046
9.64771
9.6659
9.68504
9.70511
9.72611
9.74804
9.7709
9.79458
9.81823
9.83791
9.8494
9.9801
4874.45
-543.728
-412.155
-137.307
-24.8805
14.4738
29.4005
36.6007
41.1859
44.6634
47.4694
49.7281
51.4773
52.735
53.518
53.848
53.7519
53.2617
52.4137
51.2476
49.805
48.1289
46.2622
44.2471
42.1241
39.9314
37.7043
35.4748
33.2713
31.1184
29.0368
27.0437
25.1523
23.3726
21.7114
20.1724
18.757
17.4644
16.2918
15.235
14.2885
13.4461
12.7007
12.0451
11.4716
10.9729
10.5415
10.1704
9.85289
9.58261
9.35374
9.16094
8.99936
8.86463
8.75286
8.66064
8.58493
8.52314
8.473
8.43257
8.40021
8.37452
8.35435
8.33871
8.32682
8.318
8.31173
8.30758
8.30519
8.30432
8.30474
8.30629
8.30887
8.31238
8.31676
8.32197
8.328
8.33483
8.34247
8.35091
8.36019
8.3703
8.38126
8.3931
8.40582
8.41945
8.43399
8.44946
8.46587
8.48322
8.50151
8.52076
8.54095
8.5621
8.58421
8.60718
8.63035
8.6507
8.66545
8.77808
4874.43
-543.793
-412.263
-137.458
-25.0744
14.2376
29.1226
36.2815
40.826
44.2637
47.0305
49.251
50.963
52.1845
52.9325
53.2287
53.1
52.5785
51.7007
50.506
49.0364
47.3347
45.4439
43.4062
41.2621
39.0497
36.8043
34.5579
32.3389
30.1718
28.0773
26.0724
24.1703
22.3811
20.7112
19.1645
17.7423
16.4437
15.2658
14.2043
13.2537
12.4077
11.6593
11.0009
10.4252
9.92453
9.4915
9.11899
8.80026
8.52897
8.29925
8.10574
7.94355
7.80832
7.69613
7.60354
7.52753
7.46547
7.41509
7.37445
7.34189
7.31602
7.29566
7.27983
7.26774
7.25871
7.25222
7.24782
7.24517
7.24401
7.24411
7.24531
7.2475
7.25059
7.25451
7.25923
7.26472
7.27097
7.27799
7.28578
7.29435
7.30372
7.31391
7.32493
7.33681
7.34956
7.36321
7.37775
7.39322
7.40961
7.42694
7.44521
7.46443
7.48461
7.50575
7.52778
7.55018
7.57064
7.58746
7.68444
4874.41
-543.853
-412.362
-137.596
-25.2516
14.0218
28.8686
35.9899
40.4975
43.8989
46.6302
48.8161
50.4944
51.6832
52.3997
52.6653
52.5073
51.9578
51.0532
49.833
48.3393
46.6148
44.7025
42.6447
40.4818
38.2519
35.9904
33.7291
31.4964
29.3167
27.2108
25.1955
23.2841
21.4864
19.809
18.2556
16.8274
15.5234
14.3409
13.2753
12.3212
11.4721
10.7209
10.0603
9.4826
8.98022
8.54574
8.172
7.85223
7.58006
7.34961
7.15547
6.99277
6.8571
6.74454
6.65164
6.57536
6.51306
6.46247
6.42164
6.3889
6.36286
6.34233
6.32633
6.31405
6.30483
6.29812
6.29349
6.2906
6.28915
6.28894
6.28981
6.29163
6.2943
6.29778
6.30201
6.30698
6.31266
6.31907
6.3262
6.33407
6.3427
6.3521
6.36229
6.3733
6.38514
6.39784
6.4114
6.42586
6.44121
6.45748
6.47467
6.49279
6.51186
6.53187
6.55277
6.57417
6.5943
6.61223
6.69567
4874.4
-543.907
-412.452
-137.721
-25.4123
13.8261
28.6384
35.7257
40.1999
43.5685
46.2679
48.4226
50.0707
51.2301
51.9182
52.1566
51.9724
51.3979
50.4693
49.2266
47.7113
45.9666
44.0353
41.9597
39.7802
37.5349
35.2592
32.9847
30.74
28.5493
26.4333
24.409
22.4894
20.6843
19.0003
17.441
16.0076
14.6991
13.5125
12.4433
11.4861
10.6343
9.88087
9.21823
8.63879
8.13493
7.6992
7.3244
7.00373
6.7308
6.49971
6.30503
6.14188
6.00583
5.89295
5.79977
5.72325
5.66075
5.60998
5.56898
5.53608
5.50988
5.48919
5.47304
5.46059
5.45119
5.44429
5.43944
5.4363
5.43459
5.43409
5.43464
5.4361
5.43839
5.44144
5.4452
5.44965
5.45478
5.46059
5.46707
5.47425
5.48214
5.49075
5.50011
5.51024
5.52116
5.53289
5.54544
5.55884
5.57311
5.58825
5.60429
5.62122
5.63907
5.65783
5.67748
5.69769
5.71715
5.73545
5.80717
4874.38
-543.955
-412.532
-137.834
-25.557
13.65
28.4313
35.488
39.9323
43.2716
45.9423
48.0692
49.6902
50.8235
51.4863
51.7004
51.493
50.8962
49.9465
48.6837
47.1495
45.3869
43.4389
41.3476
39.1535
36.8947
34.6065
32.3205
30.0652
27.8649
25.7402
23.708
21.7812
19.9697
18.28
16.7156
15.2777
13.9652
12.775
11.7028
10.7429
9.88881
9.13331
8.46894
7.88802
7.38289
6.94607
6.57035
6.24891
5.97532
5.74368
5.54854
5.385
5.24862
5.13546
5.04204
4.96532
4.90264
4.85171
4.81056
4.77752
4.75118
4.73035
4.71405
4.70144
4.69188
4.68479
4.67974
4.67638
4.67443
4.67365
4.67389
4.67502
4.67693
4.67957
4.68288
4.68685
4.69144
4.69667
4.70252
4.70903
4.71619
4.72403
4.73257
4.74182
4.75182
4.76257
4.77411
4.78644
4.79959
4.81358
4.82841
4.8441
4.86067
4.87811
4.89641
4.91531
4.93383
4.95193
5.01351
4874.36
-543.999
-412.605
-137.935
-25.6863
13.4926
28.2462
35.2758
39.6933
43.0065
45.6518
47.7538
49.3509
50.461
51.1015
51.2941
51.0661
50.4497
49.4814
48.2009
46.6501
44.8718
42.9091
40.8041
38.5973
36.3267
34.0275
31.7315
29.467
27.2584
25.1261
23.0869
21.154
19.337
17.6422
16.0735
14.6316
13.3156
12.1225
11.0476
10.0854
9.22928
8.47205
7.80619
7.22398
6.71776
6.28001
5.90351
5.58139
5.30725
5.07513
4.8796
4.71572
4.57905
4.46565
4.37204
4.29514
4.2323
4.18122
4.13994
4.10677
4.08031
4.05935
4.04292
4.03017
4.02045
4.0132
4.00796
4.0044
4.00221
4.00118
4.00113
4.00194
4.0035
4.00575
4.00864
4.01214
4.01622
4.02089
4.02615
4.032
4.03847
4.04555
4.05329
4.06169
4.07077
4.08057
4.09109
4.10236
4.11439
4.12721
4.14082
4.15525
4.1705
4.18658
4.20347
4.221
4.2384
4.25587
4.30869
4874.35
-544.037
-412.669
-138.025
-25.8011
13.353
28.082
35.0874
39.4813
42.7714
45.3942
47.4744
49.0503
50.1399
50.7608
50.9345
50.6885
50.0549
49.0703
47.7743
46.2089
44.4169
42.4414
40.3245
38.1065
35.8257
33.517
31.2124
28.9399
26.724
24.5851
22.54
20.6018
18.7799
17.0809
15.5083
14.0632
12.7442
11.5484
10.4713
9.50708
8.64923
7.89052
7.22337
6.64007
6.13291
5.69437
5.31719
4.9945
4.71988
4.48735
4.29148
4.12731
3.99041
3.8768
3.78301
3.70595
3.64298
3.59178
3.55038
3.5171
3.49053
3.46946
3.4529
3.44003
3.43017
3.42276
3.41735
3.41359
3.41119
3.40992
3.40961
3.41012
3.41136
3.41325
3.41574
3.41879
3.42239
3.42654
3.43122
3.43646
3.44225
3.44862
3.45558
3.46315
3.47136
3.48022
3.48975
3.49997
3.5109
3.52257
3.53497
3.54813
3.56206
3.57677
3.59225
3.60835
3.62451
3.64107
3.68629
4874.34
-544.071
-412.725
-138.104
-25.9023
13.2298
27.9372
34.9215
39.2946
42.5644
45.1674
47.2284
48.7857
49.8575
50.4611
50.6183
50.3566
49.708
48.7091
47.3997
45.8216
44.0177
42.0311
39.9038
37.6762
35.3865
33.0696
30.7575
28.4781
26.256
24.1115
22.0613
20.1184
18.2924
16.5898
15.0139
13.5658
12.2443
11.0463
9.96721
9.00132
8.14199
7.38201
6.71377
6.12953
5.62157
5.18235
4.80459
4.48142
4.20638
3.97352
3.77735
3.61294
3.47582
3.36205
3.2681
3.19091
3.12782
3.07651
3.03501
3.00164
2.97496
2.95379
2.93712
2.92414
2.91415
2.9066
2.90103
2.8971
2.8945
2.89301
2.89246
2.89269
2.89363
2.89518
2.89729
2.89994
2.90309
2.90674
2.91089
2.91554
2.9207
2.92638
2.93261
2.93939
2.94675
2.95471
2.96329
2.9725
2.98237
2.9929
3.00412
3.01604
3.02867
3.04203
3.05609
3.07077
3.08563
3.10107
3.13973
4874.33
-544.101
-412.775
-138.173
-25.9909
13.122
27.8105
34.7761
39.131
42.3831
44.9689
47.0132
48.5543
49.6104
50.1991
50.342
50.0665
49.4049
48.3937
47.0726
45.4836
43.6695
41.6732
39.537
37.3011
35.0037
32.6798
30.3612
28.076
25.8484
23.699
21.6445
19.6977
17.8682
16.1624
14.5837
13.1332
11.8095
10.6096
9.52881
8.56147
7.70089
6.93983
6.27066
5.68562
5.17699
4.73719
4.35894
4.03535
3.75997
3.52681
3.3304
3.16577
3.02848
2.91455
2.82047
2.74318
2.67998
2.62858
2.58699
2.55353
2.52677
2.50551
2.48874
2.47565
2.46554
2.45787
2.45216
2.44807
2.44529
2.4436
2.44282
2.44281
2.44346
2.4447
2.44647
2.44873
2.45147
2.45466
2.4583
2.4624
2.46697
2.47201
2.47755
2.48359
2.49015
2.49726
2.50492
2.51317
2.52201
2.53146
2.54154
2.55226
2.56364
2.57567
2.58837
2.60164
2.61517
2.62939
2.66238
4874.32
-544.127
-412.818
-138.233
-26.0681
13.028
27.7001
34.6496
38.9888
42.2254
44.7962
46.826
48.3531
49.3957
49.9714
50.1019
49.8146
49.1418
48.1199
46.7888
45.1903
43.3674
41.3629
39.2189
36.976
34.672
32.3421
30.0179
27.7276
25.4955
23.342
21.2837
19.3335
17.501
15.7925
14.2115
12.7589
11.4333
10.2318
9.14962
8.18106
7.31942
6.55743
5.88747
5.30176
4.79255
4.35226
3.9736
3.64966
3.37398
3.14057
2.94395
2.77915
2.64171
2.52765
2.43346
2.35607
2.29278
2.2413
2.19964
2.1661
2.13926
2.11792
2.10107
2.08788
2.07767
2.06988
2.06405
2.05981
2.05687
2.05499
2.05401
2.05377
2.05416
2.05512
2.05657
2.05849
2.06083
2.0636
2.06678
2.07038
2.07439
2.07884
2.08373
2.08907
2.09489
2.10119
2.108
2.11534
2.12321
2.13164
2.14063
2.15021
2.16038
2.17115
2.18253
2.19444
2.20666
2.21959
2.24769
4874.31
-544.15
-412.855
-138.285
-26.1349
12.9468
27.6046
34.5402
38.8657
42.0891
44.647
46.6642
48.1792
49.2102
49.7748
49.8946
49.5972
48.9147
47.8837
46.544
44.9374
43.1068
41.0953
38.9448
36.6957
34.3861
32.0511
29.7222
27.4277
25.1916
23.0346
20.9731
19.0201
17.185
15.4743
13.8912
12.4368
11.1097
9.90678
8.82343
7.85382
6.99128
6.22852
5.55789
4.97161
4.46191
4.02121
3.6422
3.31796
3.04203
2.80841
2.61161
2.44666
2.3091
2.19493
2.10064
2.02316
1.95981
1.90825
1.86652
1.83292
1.80601
1.7846
1.76767
1.7544
1.7441
1.73621
1.73026
1.72589
1.7228
1.72076
1.71959
1.71914
1.71931
1.72
1.72117
1.72276
1.72476
1.72714
1.7299
1.73303
1.73653
1.74043
1.74472
1.74942
1.75454
1.7601
1.76611
1.7726
1.77956
1.78703
1.795
1.8035
1.81253
1.82211
1.83224
1.84286
1.8538
1.86545
1.88932
4874.31
-544.169
-412.888
-138.33
-26.1923
12.8769
27.5225
34.4461
38.7599
41.9719
44.5187
46.5252
48.0299
49.0509
49.6059
49.7166
49.4105
48.7197
47.681
46.3339
44.7204
42.8834
40.8658
38.7098
36.4556
34.1412
31.8018
29.4689
27.1707
24.9314
22.7713
20.7071
18.7517
16.9145
15.2018
13.6171
12.1612
10.8327
9.62867
8.5443
7.57382
6.71052
5.9471
5.27591
4.68915
4.17904
3.73799
3.35868
3.0342
2.75806
2.52426
2.32731
2.16224
2.02456
1.9103
1.81594
1.73839
1.67496
1.62335
1.58156
1.5479
1.52093
1.49946
1.48247
1.46912
1.45874
1.45075
1.4447
1.44021
1.43699
1.43481
1.43347
1.43283
1.43279
1.43325
1.43416
1.43546
1.43714
1.43917
1.44154
1.44424
1.44729
1.45068
1.45442
1.45853
1.46301
1.46789
1.47316
1.47886
1.48499
1.49156
1.49858
1.50608
1.51405
1.52251
1.53147
1.54087
1.5506
1.561
1.58121
4874.3
-544.185
-412.915
-138.368
-26.2415
12.8172
27.4524
34.3657
38.6695
41.8718
44.4091
46.4065
47.9023
48.9149
49.4617
49.5647
49.2511
48.5534
47.508
46.1547
44.5354
42.6929
40.6702
38.5094
36.2509
33.9325
31.5893
29.2531
26.9518
24.7097
22.5471
20.4807
18.5232
16.6842
14.9699
13.3837
11.9265
10.597
9.39193
8.30672
7.33549
6.47155
5.70759
5.03593
4.44876
3.93831
3.49696
3.1174
2.79271
2.51639
2.28244
2.08537
1.92019
1.78242
1.66808
1.57365
1.49604
1.43256
1.38089
1.33906
1.30534
1.27833
1.2568
1.23974
1.22634
1.21588
1.20781
1.20167
1.19708
1.19374
1.19143
1.18994
1.18913
1.1889
1.18915
1.18983
1.19087
1.19226
1.19397
1.19599
1.19832
1.20094
1.20387
1.20712
1.21069
1.21459
1.21884
1.22344
1.22841
1.23377
1.23952
1.24567
1.25224
1.25924
1.26666
1.27453
1.2828
1.29139
1.30059
1.31767
4874.3
-544.199
-412.938
-138.401
-26.2832
12.7665
27.3928
34.2974
38.5927
41.7867
44.316
46.3056
47.794
48.7994
49.3393
49.4357
49.1159
48.4123
47.3613
46.0027
44.3785
42.5314
40.5044
38.3396
36.0774
33.7556
31.4093
29.0703
26.7664
24.5219
22.3572
20.2888
18.3296
16.4891
14.7734
13.1861
11.7278
10.3973
9.19147
8.10554
7.13369
6.26922
5.50479
4.83273
4.24522
3.73448
3.29288
2.91312
2.58825
2.31178
2.0777
1.88052
1.71525
1.57741
1.463
1.36851
1.29085
1.22732
1.17562
1.13373
1.09998
1.07292
1.05134
1.03423
1.02077
1.01025
1.00211
0.995883
0.991202
0.987764
0.98533
0.983711
0.982759
0.982359
0.982424
0.982888
0.983704
0.984836
0.986263
0.987969
0.989948
0.992196
0.994717
0.997515
1.0006
1.00397
1.00765
1.01164
1.01596
1.02061
1.02561
1.03097
1.03669
1.04279
1.04927
1.05614
1.06337
1.0709
1.07898
1.09337
4874.29
-544.211
-412.958
-138.429
-26.3184
12.7236
27.3424
34.2397
38.5279
41.7149
44.2375
46.2205
47.7026
48.7019
49.2361
49.3269
49.0019
48.2932
47.2375
45.8746
44.2461
42.3952
40.3646
38.1965
35.9311
33.6065
31.2576
28.9161
26.6101
24.3637
22.1972
20.1272
18.1666
16.3247
14.6079
13.0195
11.5604
10.2291
9.02259
7.93606
6.9637
6.09877
5.33395
4.66156
4.07376
3.56277
3.12097
2.74103
2.41601
2.13942
1.90524
1.70796
1.54262
1.40471
1.29024
1.19571
1.118
1.05443
1.00269
0.960767
0.926975
0.899874
0.878254
0.861106
0.847591
0.837015
0.828811
0.822515
0.817754
0.814225
0.811688
0.809953
0.808869
0.808322
0.808222
0.808502
0.809112
0.810016
0.811189
0.812617
0.814288
0.8162
0.818353
0.82075
0.823396
0.826299
0.829468
0.832911
0.836638
0.840658
0.844982
0.849617
0.854574
0.85986
0.865481
0.871441
0.877725
0.88428
0.891324
0.903415
4874.29
-544.221
-412.975
-138.452
-26.348
12.6876
27.3002
34.1913
38.4735
41.6547
44.1715
46.1491
47.6259
48.6201
49.1494
49.2357
48.9062
48.1934
47.1338
45.7671
44.1352
42.281
40.2474
38.0764
35.8085
33.4815
31.1304
28.787
26.4791
24.231
22.0631
19.9917
18.0299
16.187
14.4692
12.88
11.4201
10.0882
8.88106
7.79403
6.82122
5.95592
5.19077
4.51809
3.93006
3.41886
2.97689
2.5968
2.27165
1.99495
1.76068
1.56333
1.39792
1.25995
1.14544
1.05086
0.973116
0.909516
0.857737
0.815785
0.78196
0.754825
0.73317
0.715983
0.702424
0.691799
0.68354
0.677183
0.672351
0.668742
0.666115
0.664278
0.66308
0.662403
0.662158
0.662275
0.662703
0.663406
0.664356
0.665537
0.666937
0.66855
0.670377
0.672417
0.674675
0.677158
0.679871
0.682823
0.686022
0.689476
0.693194
0.697183
0.701451
0.706006
0.710853
0.715996
0.721422
0.727095
0.733195
0.743318
4874.29
-544.229
-412.988
-138.471
-26.3727
12.6576
27.265
34.151
38.4281
41.6044
44.1166
46.0896
47.562
48.552
49.0772
49.1596
48.8265
48.1102
47.0473
45.6775
44.0427
42.1858
40.1497
37.9764
35.7063
33.3773
31.0244
28.6793
26.3699
24.1205
21.9513
19.8788
17.916
16.0722
14.3536
12.7637
11.3031
9.97067
8.76305
7.6756
6.70243
5.8368
5.07137
4.39846
3.81022
3.29885
2.85673
2.47651
2.15126
1.87446
1.64011
1.4427
1.27723
1.13922
1.02467
0.93005
0.852273
0.788642
0.736835
0.694855
0.661002
0.633838
0.612152
0.594931
0.581334
0.570667
0.562361
0.555949
0.551056
0.547379
0.544673
0.542747
0.541448
0.540658
0.540286
0.540261
0.540531
0.541057
0.541811
0.542775
0.543935
0.545286
0.546825
0.54855
0.550466
0.552577
0.554887
0.557404
0.560135
0.563085
0.566264
0.569677
0.573332
0.577234
0.581391
0.585803
0.590462
0.595342
0.600589
0.609037
4874.29
-544.236
-413
-138.487
-26.3931
12.6328
27.2358
34.1176
38.3906
41.5628
44.0711
46.0403
47.509
48.4956
49.0175
49.0967
48.7605
48.0413
46.9757
45.6033
43.9661
42.107
40.0688
37.8936
35.6217
33.291
30.9366
28.5901
26.2795
24.0289
21.8586
19.7852
17.8215
15.977
14.2577
12.6672
11.2061
9.8732
8.66518
7.57736
6.60388
5.73798
4.97232
4.2992
3.71079
3.19927
2.75701
2.37669
2.05134
1.77447
1.54005
1.34258
1.17707
1.03901
0.924425
0.829776
0.75197
0.688314
0.636482
0.594478
0.560601
0.533411
0.511698
0.494447
0.480818
0.470114
0.461767
0.455309
0.450363
0.446625
0.443851
0.441848
0.440462
0.439574
0.439092
0.438943
0.439074
0.439446
0.44003
0.440804
0.441756
0.442877
0.444163
0.445614
0.447229
0.449013
0.450969
0.453103
0.45542
0.457928
0.46063
0.463535
0.466647
0.469972
0.473516
0.47728
0.481258
0.485431
0.489918
0.496943
4874.28
-544.242
-413.009
-138.5
-26.4099
12.6124
27.2118
34.0901
38.3597
41.5287
44.0337
45.9998
47.4655
48.4492
48.9683
49.0449
48.7062
47.9847
46.9168
45.5423
43.9032
42.0421
40.0022
37.8254
35.552
33.22
30.8643
28.5166
26.2049
23.9534
21.7822
19.7081
17.7437
15.8985
14.1787
12.5876
11.1261
9.79279
8.58442
7.4963
6.52255
5.65641
4.89055
4.21726
3.6287
3.11705
2.67468
2.29426
1.96883
1.69189
1.45742
1.2599
1.09434
0.956245
0.841627
0.74695
0.669119
0.60544
0.553585
0.51156
0.477662
0.45045
0.428713
0.411437
0.39778
0.387045
0.378662
0.372164
0.367172
0.363383
0.36055
0.35848
0.357019
0.356047
0.355469
0.355213
0.355225
0.355463
0.355899
0.356509
0.357279
0.358201
0.359268
0.360478
0.361831
0.36333
0.364976
0.366776
0.368732
0.370851
0.373136
0.375595
0.37823
0.381049
0.384053
0.387247
0.390625
0.394172
0.397986
0.403808
4874.28
-544.246
-413.017
-138.511
-26.4235
12.5958
27.1923
34.0678
38.3346
41.5008
44.0032
45.9668
47.4301
48.4114
48.9283
49.0027
48.6619
47.9384
46.8687
45.4925
43.8517
41.9892
39.9478
37.7697
35.495
33.1619
30.8052
28.4565
26.1439
23.8916
21.7197
19.6449
17.6799
15.8341
14.1139
12.5224
11.0605
9.72683
8.51815
7.42977
6.45578
5.58944
4.82341
4.14996
3.56126
3.0495
2.60704
2.22653
1.90103
1.62403
1.3895
1.19194
1.02634
0.888213
0.773566
0.678863
0.601009
0.537309
0.485436
0.443392
0.409475
0.382244
0.360486
0.343188
0.329506
0.318744
0.31033
0.303798
0.298767
0.294933
0.29205
0.289924
0.288398
0.287353
0.286693
0.286345
0.286254
0.286378
0.286685
0.287154
0.287768
0.288516
0.289394
0.290396
0.291522
0.292774
0.294152
0.295661
0.297304
0.299084
0.301007
0.303076
0.305297
0.307672
0.310206
0.312901
0.315754
0.318753
0.321976
0.326784
4874.28
-544.25
-413.023
-138.519
-26.4345
12.5824
27.1766
34.0497
38.3143
41.4784
43.9786
45.9402
47.4015
48.3808
48.8959
48.9686
48.6262
47.9011
46.8298
45.4522
43.8101
41.9463
39.9037
37.7245
35.4489
33.1147
30.7572
28.4077
26.0944
23.8413
21.6689
19.5934
17.628
15.7818
14.0611
12.4692
11.007
9.67302
8.46409
7.37547
6.40128
5.53476
4.76856
4.09498
3.50616
2.99429
2.55174
2.17116
1.84559
1.56853
1.33396
1.13635
0.970715
0.83256
0.717886
0.62316
0.545285
0.481566
0.429675
0.387613
0.353679
0.326431
0.304656
0.287338
0.273635
0.26285
0.25441
0.247848
0.242784
0.238912
0.235986
0.233811
0.23223
0.231122
0.230392
0.229966
0.229787
0.229812
0.23001
0.230357
0.230837
0.231438
0.232152
0.232976
0.233907
0.234945
0.236092
0.23735
0.238722
0.24021
0.241819
0.243552
0.245413
0.247404
0.24953
0.251793
0.254189
0.256711
0.25942
0.263375
4874.28
-544.253
-413.028
-138.526
-26.4433
12.5717
27.164
34.0354
38.2982
41.4605
43.959
45.9189
47.3786
48.3565
48.8701
48.9413
48.5976
47.8712
46.7987
45.42
43.7767
41.9119
39.8684
37.6882
35.4117
33.0769
30.7185
28.3684
26.0545
23.8008
21.6278
19.5519
17.586
15.7394
14.0183
12.4262
10.9636
9.62941
8.42024
7.33141
6.35703
5.49035
4.72401
4.0503
3.46138
2.94941
2.50677
2.12612
1.80049
1.52338
1.28876
1.09111
0.925438
0.787253
0.672553
0.577805
0.49991
0.436172
0.384264
0.342187
0.308238
0.280974
0.259183
0.241848
0.228127
0.217321
0.208859
0.202272
0.197179
0.193275
0.190313
0.188096
0.186468
0.185308
0.184518
0.184025
0.183771
0.183713
0.183817
0.184061
0.184426
0.1849
0.185475
0.186146
0.18691
0.187766
0.188715
0.189758
0.190897
0.192135
0.193474
0.194917
0.196468
0.19813
0.199904
0.201793
0.203795
0.205904
0.208169
0.211411
4874.28
-544.255
-413.032
-138.531
-26.4502
12.5634
27.1542
34.0241
38.2855
41.4464
43.9437
45.9023
47.3607
48.3373
48.8497
48.9198
48.575
47.8476
46.7742
45.3945
43.7503
41.8847
39.8404
37.6595
35.3823
33.0467
30.6878
28.3371
26.0226
23.7685
21.595
19.5187
17.5524
15.7054
13.984
12.3916
10.9288
9.59431
8.38492
7.2959
6.32135
5.45452
4.68804
4.01421
3.42518
2.91312
2.4704
2.08968
1.76399
1.48682
1.25215
1.05447
0.888761
0.750547
0.635821
0.541051
0.463136
0.399381
0.347457
0.305365
0.271401
0.244123
0.222317
0.204968
0.19123
0.180407
0.171925
0.165316
0.1602
0.156268
0.153275
0.151023
0.149356
0.14815
0.14731
0.146761
0.146443
0.146314
0.14634
0.146496
0.146763
0.14713
0.147587
0.148128
0.14875
0.149451
0.150231
0.151091
0.152032
0.153055
0.154164
0.15536
0.156647
0.158025
0.159498
0.161068
0.162732
0.164487
0.16637
0.169018
4874.28
-544.257
-413.035
-138.536
-26.4554
12.557
27.1467
34.0155
38.2758
41.4356
43.9318
45.8894
47.3469
48.3226
48.834
48.9033
48.5576
47.8294
46.7551
45.3747
43.7298
41.8635
39.8185
37.637
35.3592
33.0231
30.6636
28.3124
25.9975
23.7429
21.5691
19.4924
17.5257
15.6784
13.9568
12.364
10.901
9.56629
8.3567
7.26749
6.29278
5.42579
4.65918
3.98524
3.3961
2.88395
2.44115
2.06035
1.7346
1.45738
1.22267
1.02494
0.8592
0.720955
0.606204
0.51141
0.433475
0.369703
0.317763
0.275656
0.241679
0.214387
0.192568
0.175205
0.161453
0.150615
0.142116
0.135488
0.130351
0.126396
0.123377
0.121095
0.119394
0.118152
0.117269
0.116672
0.116301
0.116112
0.116071
0.116153
0.116339
0.116615
0.116972
0.117403
0.117905
0.118475
0.119112
0.119816
0.120589
0.121431
0.122344
0.123331
0.124392
0.12553
0.126747
0.128044
0.129421
0.130874
0.132432
0.134585
4874.28
-544.259
-413.037
-138.539
-26.4594
12.5522
27.1411
34.009
38.2685
41.4276
43.923
45.8798
47.3365
48.3115
48.8223
48.8908
48.5445
47.8156
46.7407
45.3597
43.7142
41.8473
39.8018
37.6198
35.3415
33.0049
30.645
28.2934
25.978
23.7231
21.5488
19.4718
17.5048
15.6573
13.9353
12.3423
10.879
9.54413
8.33434
7.24496
6.27008
5.40295
4.6362
3.96214
3.37289
2.86065
2.41777
2.0369
1.71108
1.43381
1.19904
1.00127
0.835496
0.697219
0.58244
0.487623
0.409667
0.345876
0.29392
0.251798
0.217807
0.190503
0.168671
0.151296
0.137531
0.126679
0.118166
0.111522
0.106367
0.102392
0.0993507
0.0970441
0.0953156
0.0940411
0.0931232
0.0924858
0.0920703
0.0918315
0.0917349
0.0917546
0.0918715
0.0920715
0.0923446
0.0926837
0.0930844
0.0935439
0.0940606
0.0946343
0.0952653
0.0959543
0.0967026
0.0975116
0.0983829
0.0993179
0.100318
0.101385
0.102518
0.103714
0.104997
0.106742
4874.28
-544.259
-413.038
-138.541
-26.4621
12.5488
27.1371
34.0044
38.2633
41.4218
43.9167
45.873
47.3291
48.3035
48.8138
48.8818
48.535
47.8056
46.7302
45.3487
43.7028
41.8354
39.7895
37.607
35.3283
32.9913
30.631
28.279
25.9633
23.708
21.5334
19.4561
17.4888
15.6409
13.9187
12.3255
10.862
9.52683
8.31685
7.22728
6.25223
5.38495
4.61807
3.94388
3.35452
2.84218
2.39921
2.01826
1.69238
1.41504
1.18022
0.982408
0.816592
0.678281
0.563472
0.468629
0.390651
0.32684
0.274867
0.23273
0.198725
0.171408
0.149564
0.132177
0.1184
0.107536
0.0990098
0.0923523
0.0871821
0.0831906
0.0801302
0.0778027
0.0760507
0.0747498
0.0738022
0.0731315
0.0726787
0.0723981
0.0722549
0.0722229
0.0722824
0.0724189
0.0726219
0.072884
0.0732001
0.0735672
0.0739832
0.0744474
0.0749596
0.0755203
0.0761302
0.0767904
0.077502
0.0782663
0.0790845
0.0799576
0.0808852
0.0818654
0.0829158
0.0843246
4874.28
-544.26
-413.039
-138.542
-26.464
12.5466
27.1345
34.0014
38.2599
41.418
43.9125
45.8684
47.3242
48.2982
48.8081
48.8757
48.5285
47.7988
46.723
45.3411
43.6949
41.8271
39.7808
37.598
35.3189
32.9815
30.6209
28.2685
25.9525
23.6969
21.522
19.4443
17.4767
15.6286
13.9061
12.3126
10.8489
9.51355
8.30336
7.2136
6.23838
5.37094
4.60391
3.92959
3.34011
2.82766
2.3846
2.00357
1.67761
1.4002
1.16533
0.967464
0.801604
0.663255
0.548414
0.453542
0.375539
0.311708
0.259716
0.217563
0.183543
0.156213
0.134357
0.116958
0.103171
0.0922952
0.0837575
0.0770878
0.0719044
0.0678986
0.0648224
0.0624773
0.0607057
0.0593827
0.0584104
0.057712
0.0572282
0.056913
0.0567312
0.0566562
0.056668
0.0567517
0.0568964
0.0570945
0.0573404
0.0576305
0.0579627
0.0583357
0.0587489
0.0592026
0.059697
0.0602329
0.0608112
0.0614329
0.0620988
0.0628098
0.0635657
0.0643651
0.0652212
0.0663541
4874.28
-544.26
-413.04
-138.543
-26.465
12.5453
27.133
33.9997
38.258
41.4159
43.9101
45.8658
47.3213
48.2951
48.8047
48.8721
48.5246
47.7946
46.7186
45.3364
43.6899
41.8218
39.7752
37.5921
35.3127
32.975
30.614
28.2614
25.945
23.6891
21.5139
19.4359
17.4681
15.6197
13.8969
12.3031
10.8392
9.50359
8.29318
7.20322
6.22782
5.3602
4.59302
3.91855
3.32895
2.81638
2.37321
1.99208
1.66604
1.38857
1.15363
0.955707
0.789799
0.651408
0.536529
0.441626
0.363596
0.299741
0.247729
0.205558
0.171524
0.14418
0.122311
0.104901
0.0911023
0.0802163
0.071668
0.0649875
0.0597925
0.0557744
0.0526847
0.0503248
0.0485367
0.0471954
0.0462025
0.0454813
0.0449718
0.0446279
0.0444142
0.0443037
0.0442761
0.0443162
0.0444128
0.0445579
0.0447456
0.0449722
0.0452349
0.0455323
0.0458635
0.0462284
0.046627
0.0470598
0.0475274
0.0480305
0.0485699
0.0491461
0.0497591
0.0504078
0.0511023
0.0520097
4874.28
-544.261
-413.04
-138.543
-26.4654
12.5449
27.1324
33.9991
38.2573
41.4151
43.9092
45.8648
47.3202
48.2939
48.8034
48.8706
48.523
47.7928
46.7166
45.3342
43.6874
41.8191
39.7723
37.5888
35.3092
32.9713
30.61
28.257
25.9403
23.6841
21.5086
19.4304
17.4622
15.6135
13.8905
12.2964
10.8322
9.49638
8.28574
7.19557
6.21996
5.35216
4.5848
3.91018
3.32043
2.80774
2.36445
1.98322
1.65709
1.37953
1.14452
0.946533
0.78057
0.642131
0.527211
0.432273
0.354213
0.290331
0.238297
0.196107
0.162055
0.134697
0.112815
0.0953928
0.0815834
0.0706872
0.062129
0.0554384
0.0502333
0.0462044
0.0431031
0.0407306
0.0389287
0.0375721
0.0365623
0.035822
0.0352914
0.034924
0.034684
0.0345443
0.0344843
0.0344885
0.0345455
0.034647
0.0347869
0.0349611
0.0351666
0.0354017
0.0356653
0.0359569
0.0362765
0.0366242
0.0370003
0.0374055
0.0378403
0.038305
0.0387997
0.0393236
0.0398843
0.0406083
4874.28
-544.26
-413.04
-138.543
-26.4652
12.5451
27.1327
33.9994
38.2576
41.4154
43.9096
45.8651
47.3206
48.2942
48.8037
48.8709
48.5232
47.7929
46.7166
45.3341
43.6871
41.8186
39.7716
37.5879
35.308
32.9698
30.6083
28.2551
25.9381
23.6815
21.5057
19.4272
17.4587
15.6097
13.8864
12.2921
10.8276
9.49147
8.28058
7.19017
6.21434
5.34633
4.57879
3.90399
3.31408
2.80124
2.35783
1.97648
1.65024
1.37259
1.1375
0.939446
0.773421
0.634928
0.519962
0.424983
0.346889
0.282978
0.230918
0.188706
0.154636
0.127262
0.105366
0.0879315
0.074111
0.0632046
0.0546367
0.0479369
0.0427224
0.0386839
0.0355726
0.0331895
0.0313759
0.0300065
0.0289826
0.0282267
0.0276787
0.0272919
0.0270304
0.0268667
0.0267802
0.0267551
0.0267797
0.0268455
0.0269462
0.0270774
0.0272361
0.0274201
0.0276282
0.0278598
0.0281145
0.0283922
0.0286933
0.029018
0.0293667
0.0297397
0.0301371
0.0305582
0.0310087
0.0315842
4874.28
-544.26
-413.04
-138.543
-26.4645
12.5459
27.1336
34.0005
38.2588
41.4168
43.911
45.8667
47.3222
48.2959
48.8054
48.8727
48.525
47.7947
46.7183
45.3357
43.6887
41.8201
39.7728
37.589
35.3089
32.9705
30.6087
28.2551
25.9379
23.681
21.5049
19.426
17.4573
15.6079
13.8843
12.2897
10.8249
9.48849
8.27733
7.18665
6.21058
5.34235
4.57459
3.8996
3.30951
2.79651
2.35295
1.97147
1.64512
1.36736
1.13218
0.934043
0.767947
0.629393
0.514374
0.41935
0.341216
0.277272
0.225184
0.182948
0.148857
0.121465
0.099554
0.0821062
0.068274
0.0573572
0.0487798
0.0420709
0.0368477
0.0328006
0.0296804
0.027288
0.0254645
0.0240844
0.0230487
0.02228
0.0217176
0.021315
0.0210359
0.0208527
0.0207446
0.0206955
0.0206938
0.0207305
0.0207992
0.0208955
0.0210159
0.0211583
0.0213212
0.0215037
0.0217054
0.021926
0.0221657
0.0224245
0.0227029
0.0230009
0.0233186
0.0236555
0.0240158
0.0244714
4874.28
-544.26
-413.039
-138.542
-26.4635
12.5471
27.1351
34.0022
38.2607
41.4189
43.9133
45.8692
47.3249
48.2988
48.8084
48.8758
48.5281
47.7979
46.7216
45.3389
43.6918
41.8232
39.7758
37.5918
35.3115
32.9729
30.6108
28.257
25.9395
23.6823
21.5059
19.4267
17.4576
15.6079
13.8839
12.289
10.8238
9.48714
8.27568
7.18472
6.20838
5.33989
4.5719
3.89669
3.30641
2.79322
2.3495
1.96787
1.64138
1.36351
1.12823
0.929998
0.763822
0.625199
0.510119
0.415043
0.336865
0.272883
0.220762
0.178499
0.144385
0.116973
0.0950452
0.0775829
0.0637383
0.0528105
0.0442233
0.0375055
0.032274
0.0282188
0.0250907
0.0226901
0.0208581
0.0194689
0.0184234
0.017644
0.0170699
0.0166543
0.0163608
0.0161618
0.0160361
0.0159676
0.0159444
0.0159576
0.0160004
0.0160683
0.0161577
0.0162663
0.0163924
0.0165351
0.0166937
0.016868
0.0170577
0.0172631
0.0174841
0.017721
0.0179738
0.0182421
0.018529
0.0188883
4874.28
-544.259
-413.038
-138.541
-26.4622
12.5487
27.137
34.0043
38.2632
41.4216
43.9164
45.8725
47.3284
48.3026
48.8124
48.88
48.5325
47.8024
46.7261
45.3435
43.6965
41.8277
39.7803
37.5962
35.3157
32.9769
30.6146
28.2605
25.9427
23.6852
21.5084
19.4289
17.4594
15.6094
13.885
12.2897
10.8242
9.48721
8.27542
7.18414
6.2075
5.33873
4.57048
3.89503
3.30452
2.79113
2.34722
1.96543
1.63879
1.36078
1.12538
0.927048
0.760782
0.622079
0.506932
0.411797
0.333568
0.269543
0.217386
0.175091
0.140951
0.113517
0.0915702
0.0740919
0.0602338
0.0492943
0.0406969
0.03397
0.0287302
0.0246674
0.0215318
0.0191238
0.0172844
0.0158874
0.0148337
0.0140453
0.0134616
0.0130353
0.0127302
0.0125183
0.0123784
0.0122942
0.0122537
0.0122478
0.0122698
0.0123147
0.012379
0.0124603
0.0125568
0.0126673
0.0127911
0.0129278
0.0130772
0.0132392
0.0134139
0.0136014
0.0138016
0.0140142
0.0142416
0.0145238
4874.28
-544.259
-413.038
-138.54
-26.4607
12.5505
27.1391
34.0068
38.266
41.4248
43.9199
45.8764
47.3327
48.3071
48.8173
48.8851
48.5378
47.8079
46.7318
45.3493
43.7023
41.8336
39.7861
37.6019
35.3213
32.9823
30.6198
28.2655
25.9473
23.6895
21.5124
19.4325
17.4626
15.6122
13.8875
12.2918
10.8259
9.48851
8.27636
7.18473
6.20776
5.33868
4.57013
3.89441
3.30365
2.79004
2.34591
1.96393
1.63713
1.35897
1.12344
0.924986
0.758617
0.619825
0.5046
0.409398
0.331112
0.267038
0.214839
0.172509
0.138339
0.11088
0.0889124
0.0714164
0.0575433
0.0465911
0.0379828
0.0312465
0.0259983
0.0219278
0.0187852
0.0163704
0.0145243
0.0131206
0.0120598
0.011264
0.0106722
0.0102373
0.00992263
0.0097003
0.00954885
0.00945203
0.0093976
0.00937636
0.0093815
0.00940801
0.00945224
0.00951158
0.0095842
0.00966883
0.00976465
0.00987115
0.00998802
0.0101151
0.0102525
0.0104001
0.0105579
0.0107257
0.0109051
0.0111259
4874.28
-544.258
-413.037
-138.538
-26.4592
12.5525
27.1415
34.0096
38.2692
41.4284
43.9239
45.8808
47.3375
48.3123
48.8228
48.8909
48.544
47.8143
46.7385
45.3562
43.7093
41.8406
39.7932
37.6089
35.3282
32.989
30.6263
28.2718
25.9533
23.6952
21.5177
19.4374
17.4671
15.6163
13.8912
12.295
10.8287
9.49093
8.27837
7.18636
6.20902
5.33959
4.57072
3.8947
3.30366
2.78979
2.34543
1.96324
1.63624
1.35792
1.12223
0.923648
0.757162
0.618268
0.502955
0.407678
0.329327
0.265197
0.212951
0.170581
0.136377
0.10889
0.0868988
0.069383
0.0554932
0.0445271
0.035907
0.0291606
0.0239037
0.0198255
0.0166759
0.0142547
0.0124024
0.0109926
0.00992576
0.00912359
0.00852514
0.00808302
0.00776063
0.00752983
0.00736911
0.00726211
0.00719649
0.00716298
0.00715466
0.00716643
0.00719455
0.00723634
0.00728986
0.00735378
0.00742719
0.00750949
0.00760033
0.0076995
0.00780692
0.00792256
0.00804636
0.00817811
0.00831904
0.00849114
4874.28
-544.258
-413.036
-138.537
-26.4576
12.5545
27.1439
34.0124
38.2725
41.4321
43.9281
45.8855
47.3426
48.3179
48.8289
48.8974
48.5509
47.8215
46.746
45.3639
43.7172
41.8487
39.8013
37.617
35.3363
32.997
30.6341
28.2793
25.9605
23.7021
21.5242
19.4435
17.4728
15.6216
13.896
12.2994
10.8326
9.49436
8.28136
7.18893
6.21118
5.34137
4.57214
3.89577
3.30442
2.79026
2.34565
1.96322
1.63601
1.35749
1.12164
0.922904
0.756287
0.617279
0.501866
0.406502
0.328078
0.263885
0.211585
0.169171
0.134929
0.10741
0.0853919
0.0678539
0.0539456
0.042964
0.0343309
0.0275736
0.0223075
0.0182213
0.0150647
0.0126372
0.0107791
0.00936377
0.00829144
0.00748379
0.00687967
0.00643159
0.00610283
0.00586514
0.00569693
0.00558176
0.00550719
0.00546386
0.0054448
0.00544482
0.00546011
0.00548791
0.00552622
0.00557364
0.00562919
0.00569221
0.00576229
0.00583917
0.00592272
0.00601286
0.0061095
0.00621248
0.00632269
0.00645629
4874.28
-544.257
-413.035
-138.536
-26.4561
12.5564
27.1462
34.0152
38.2757
41.4359
43.9324
45.8903
47.3479
48.3238
48.8353
48.9043
48.5582
47.8293
46.7542
45.3724
43.726
41.8576
39.8104
37.6262
35.3454
33.006
30.6429
28.2879
25.9689
23.7101
21.5319
19.4508
17.4796
15.6279
13.9018
12.3047
10.8375
9.49873
8.28526
7.19236
6.21417
5.34393
4.5743
3.89756
3.30586
2.79139
2.34648
1.96378
1.63633
1.3576
1.12156
0.922656
0.755891
0.616753
0.501229
0.405768
0.32726
0.262997
0.210637
0.168171
0.133886
0.106331
0.0842834
0.0667203
0.0527913
0.0417924
0.0331451
0.0263759
0.0210997
0.0170051
0.0138413
0.0114074
0.00954359
0.00812302
0.00704573
0.00623322
0.00562422
0.00517111
0.00483707
0.00459376
0.00441949
0.00429775
0.00421602
0.00416487
0.00413726
0.00412795
0.00413305
0.00414975
0.004176
0.00421033
0.00425171
0.00429945
0.00435306
0.00441225
0.00447684
0.00454672
0.00462179
0.00470191
0.0047877
0.00489101
4874.28
-544.257
-413.035
-138.535
-26.4547
12.5581
27.1483
34.0178
38.2788
41.4395
43.9365
45.895
47.3533
48.3297
48.8418
48.9114
48.5659
47.8376
46.7629
45.3816
43.7354
41.8674
39.8203
37.6363
35.3555
33.0161
30.6529
28.2977
25.9784
23.7193
21.5407
19.4591
17.4875
15.6353
13.9087
12.3111
10.8433
9.50402
8.29002
7.19662
6.21794
5.34723
4.57716
3.9
3.30792
2.79309
2.34785
1.96486
1.63715
1.35818
1.12192
0.922828
0.755897
0.616615
0.500964
0.405394
0.326793
0.26245
0.210022
0.167498
0.133165
0.105569
0.0834879
0.0658968
0.0519445
0.0409264
0.0322631
0.0254808
0.0201937
0.01609
0.0129185
0.0104781
0.00860859
0.00718294
0.00610097
0.00528405
0.00467075
0.00421333
0.00387486
0.00362691
0.00344771
0.00332067
0.00323321
0.00317584
0.00314145
0.00312474
0.00312179
0.00312972
0.00314644
0.00317043
0.00320063
0.00323629
0.00327689
0.0033221
0.00337171
0.00342558
0.0034836
0.00354564
0.00361211
0.00369169
4874.28
-544.257
-413.034
-138.534
-26.4537
12.5594
27.1501
34.0199
38.2815
41.4427
43.9404
45.8995
47.3584
48.3355
48.8483
48.9186
48.5738
47.8461
46.7719
45.3912
43.7455
41.8778
39.831
37.6472
35.3665
33.0271
30.6639
28.3085
25.989
23.7295
21.5505
19.4686
17.4965
15.6437
13.9166
12.3184
10.8501
9.5102
8.29563
7.20167
6.22245
5.35123
4.58067
3.90306
3.31056
2.79533
2.34973
1.96641
1.6384
1.35916
1.12266
0.923365
0.756248
0.616803
0.501011
0.405319
0.326613
0.26218
0.209675
0.167087
0.1327
0.105059
0.0829392
0.0653166
0.0513381
0.0402986
0.0316176
0.0248207
0.0195216
0.015408
0.0122283
0.00978101
0.00790562
0.00647488
0.00538839
0.00456734
0.00395014
0.00348894
0.00314668
0.00289486
0.00271162
0.00258029
0.00248822
0.00242589
0.00238612
0.00236357
0.00235427
0.00235529
0.00236451
0.00238038
0.00240178
0.00242794
0.00245832
0.00249254
0.00253036
0.00257164
0.00261624
0.00266403
0.00271531
0.00277636
4874.28
-544.257
-413.034
-138.534
-26.4531
12.5603
27.1513
34.0216
38.2836
41.4453
43.9436
45.9034
47.3631
48.341
48.8546
48.9257
48.5816
47.8546
46.7812
45.4011
43.756
41.8888
39.8424
37.6588
35.3784
33.039
30.6758
28.3203
26.0005
23.7408
21.5615
19.4791
17.5065
15.6532
13.9255
12.3267
10.8577
9.51725
8.30207
7.20751
6.2277
5.35592
4.58483
3.90672
3.31374
2.79808
2.35208
1.9684
1.64006
1.36052
1.12376
0.924225
0.756902
0.617275
0.501325
0.405497
0.326673
0.262139
0.209549
0.166889
0.13244
0.104748
0.0825859
0.064928
0.0509203
0.0398567
0.0311559
0.0243428
0.0190306
0.0149061
0.0117175
0.00926279
0.00738124
0.00594528
0.00485428
0.00402923
0.00340839
0.00294377
0.00259821
0.00234309
0.00215648
0.00202165
0.00192588
0.00185958
0.00181554
0.00178838
0.00177408
0.00176968
0.00177302
0.00178251
0.00179703
0.00181576
0.00183813
0.00186374
0.00189234
0.00192375
0.00195783
0.00199446
0.00203383
0.00208048
4874.28
-544.257
-413.034
-138.534
-26.4531
12.5605
27.1517
34.0224
38.2848
41.4472
43.9461
45.9066
47.3671
48.3459
48.8603
48.9324
48.5892
47.8631
46.7905
45.4111
43.7667
41.9002
39.8543
37.6711
35.391
33.0518
30.6886
28.333
26.0131
23.7531
21.5734
19.4906
17.5175
15.6637
13.9353
12.3359
10.8663
9.52518
8.30934
7.21412
6.23369
5.3613
4.58962
3.91096
3.31747
2.80133
2.35489
1.9708
1.6421
1.36224
1.12518
0.925382
0.757827
0.617999
0.501873
0.405893
0.326938
0.262291
0.209606
0.166865
0.132348
0.104598
0.0823886
0.0646911
0.0506508
0.0395603
0.0308376
0.0240065
0.0186795
0.0145431
0.0113447
0.00888204
0.00699392
0.00555249
0.00445687
0.00362785
0.00300352
0.00253572
0.00218719
0.0019292
0.00173974
0.00160199
0.00150321
0.00143373
0.0013863
0.00135549
0.00133726
0.00132861
0.00132735
0.00133187
0.00134102
0.00135395
0.00137007
0.00138898
0.00141039
0.0014341
0.00145998
0.0014879
0.00151798
0.00155348
4874.28
-544.257
-413.034
-138.535
-26.4538
12.5599
27.1513
34.0222
38.2851
41.448
43.9476
45.9088
47.3702
48.3499
48.8653
48.9384
48.5962
47.8712
46.7996
45.4211
43.7776
41.9118
39.8666
37.6839
35.4042
33.0653
30.7022
28.3466
26.0267
23.7664
21.5864
19.5031
17.5296
15.6751
13.9462
12.3461
10.8758
9.53399
8.31745
7.22154
6.24041
5.36736
4.59505
3.91579
3.32173
2.80506
2.35814
1.97362
1.64451
1.36428
1.1269
0.926815
0.759006
0.618954
0.502632
0.406482
0.327381
0.26261
0.209818
0.166986
0.132393
0.10458
0.0823174
0.0645757
0.050499
0.0393786
0.0306313
0.0237802
0.0184369
0.0142873
0.0110782
0.0086068
0.00671158
0.00526434
0.0041639
0.00333083
0.00270303
0.00223219
0.00188089
0.00162034
0.0014284
0.00128821
0.00118693
0.00111487
0.00106473
0.00103103
0.00100971
0.000997733
0.000992887
0.00099354
0.000998506
0.00100693
0.00101821
0.00103191
0.00104773
0.00106547
0.00108498
0.00110614
0.001129
0.00115591
4874.28
-544.258
-413.035
-138.536
-26.4554
12.5582
27.1496
34.0207
38.284
41.4473
43.9476
45.9097
47.3719
48.3527
48.8692
48.9434
48.6025
47.8786
46.8082
45.4309
43.7884
41.9235
39.8791
37.6971
35.4179
33.0794
30.7166
28.3611
26.0411
23.7807
21.6004
19.5167
17.5426
15.6877
13.9581
12.3573
10.8863
9.54372
8.32642
7.22975
6.24789
5.37413
4.60113
3.92121
3.32654
2.8093
2.36185
1.97683
1.64728
1.36666
1.12892
0.928515
0.760423
0.620123
0.503586
0.407248
0.327985
0.263075
0.210165
0.167233
0.132556
0.104672
0.0823496
0.0645589
0.0504417
0.0392879
0.0305133
0.02364
0.0182787
0.0141144
0.0108934
0.00841253
0.00650958
0.00505607
0.00395052
0.00311324
0.00248191
0.00200805
0.00165412
0.00139119
0.00119705
0.00105474
0.00095137
0.000877192
0.000824858
0.000788862
0.000765099
0.00075052
0.000742878
0.000740521
0.000742247
0.000747186
0.000754712
0.000764383
0.000775886
0.000789006
0.000803591
0.000819519
0.000836808
0.000857116
4874.28
-544.259
-413.037
-138.538
-26.4581
12.5552
27.1465
34.0177
38.2812
41.4451
43.946
45.9089
47.3721
48.3539
48.8717
48.9473
48.6077
47.8852
46.8161
45.4401
43.7988
41.935
39.8916
37.7105
35.432
33.094
30.7316
28.3764
26.0564
23.7959
21.6153
19.5313
17.5568
15.7012
13.971
12.3695
10.8977
9.55436
8.33626
7.2388
6.25615
5.38161
4.60787
3.92724
3.3319
2.81404
2.36601
1.98046
1.65043
1.36937
1.13123
0.930476
0.762074
0.621501
0.504725
0.40818
0.328738
0.263674
0.210633
0.16759
0.132819
0.104856
0.0824687
0.0646235
0.0504613
0.0392705
0.0304657
0.0235677
0.0181863
0.0140059
0.0107719
0.00828046
0.00636907
0.00490876
0.00379772
0.00295597
0.00232097
0.00184406
0.00148754
0.00122235
0.00102617
0.000881978
0.000776811
0.000700859
0.000646734
0.000608891
0.000583194
0.000566569
0.000556745
0.000552052
0.000551272
0.000553517
0.000558151
0.000564718
0.000572896
0.00058246
0.000593253
0.000605153
0.000618148
0.000633407
4874.28
-544.26
-413.04
-138.542
-26.462
12.5507
27.1418
34.0129
38.2765
41.4407
43.9423
45.906
47.3703
48.3533
48.8725
48.9495
48.6115
47.8905
46.823
45.4485
43.8087
41.9462
39.904
37.724
35.4464
33.1091
30.7472
28.3923
26.0725
23.812
21.6313
19.5469
17.5719
15.7158
13.9849
12.3827
10.9101
9.56595
8.34701
7.24869
6.2652
5.38983
4.61529
3.9339
3.33784
2.81929
2.37063
1.98451
1.65394
1.3724
1.13384
0.932699
0.763956
0.623083
0.506044
0.40927
0.329631
0.264398
0.211212
0.168047
0.133172
0.105123
0.0826624
0.064757
0.0505449
0.0393132
0.0304749
0.0235496
0.0181461
0.0139478
0.0106994
0.00819637
0.00627571
0.00480798
0.003691
0.00284447
0.00220561
0.00172554
0.00136639
0.00109897
0.000900869
0.00075495
0.000648187
0.000570715
0.000515096
0.000475748
0.000448504
0.000430263
0.000418732
0.000412226
0.000409507
0.000409677
0.000412086
0.000416269
0.000421896
0.000428733
0.000436617
0.000445427
0.000455132
0.000466544
4874.28
-544.262
-413.043
-138.546
-26.4675
12.5445
27.135
34.0058
38.2695
41.434
43.9361
45.9007
47.3661
48.3505
48.8711
48.9498
48.6135
47.8943
46.8286
45.4559
43.8177
41.9569
39.9161
37.7374
35.4608
33.1245
30.7633
28.4089
26.0893
23.8289
21.6481
19.5635
17.5881
15.7314
13.9999
12.3969
10.9236
9.57851
8.35868
7.25946
6.27507
5.39882
4.62342
3.9412
3.34436
2.82508
2.37574
1.98899
1.65785
1.37578
1.13675
0.935187
0.766071
0.624868
0.507541
0.410518
0.330662
0.265242
0.211897
0.168597
0.133608
0.105463
0.0829222
0.0649503
0.0506832
0.0394063
0.030531
0.0235755
0.0181476
0.0139295
0.0106652
0.00814952
0.00621869
0.00474286
0.00361941
0.00276772
0.00212472
0.00164132
0.00127946
0.0010098
0.00080981
0.000662256
0.000554036
0.000475222
0.000418327
0.00037773
0.00034923
0.000329701
0.000316829
0.000308908
0.00030469
0.000303262
0.000303964
0.000306322
0.000309996
0.000314749
0.000320411
0.000326862
0.000334054
0.000342547
4874.28
-544.265
-413.047
-138.552
-26.4747
12.5362
27.1259
33.9963
38.2598
41.4245
43.9271
45.8926
47.3591
48.3449
48.8672
48.9477
48.6133
47.8962
46.8325
45.4618
43.8257
41.9667
39.9277
37.7504
35.4752
33.14
30.7797
28.4259
26.1068
23.8466
21.6658
19.581
17.6052
15.748
14.0159
12.4122
10.938
9.59206
8.3713
7.27114
6.28579
5.40859
4.63228
3.94918
3.3515
2.83143
2.38135
1.99391
1.66214
1.37951
1.13996
0.937946
0.768423
0.626861
0.509219
0.411921
0.331827
0.266204
0.212684
0.169235
0.134121
0.105871
0.0832422
0.0651971
0.0508695
0.0395427
0.0306266
0.023638
0.0181831
0.0139433
0.0106616
0.00813188
0.00618989
0.00470517
0.00357467
0.00271738
0.00206993
0.00158298
0.00121828
0.000946314
0.00074442
0.000595269
0.000485674
0.000405638
0.000347621
0.000305961
0.000276422
0.000255852
0.000241915
0.000232888
0.000227506
0.000224847
0.00022424
0.000225202
0.000227388
0.000230552
0.000234524
0.000239179
0.00024446
0.000250746
4874.27
-544.269
-413.053
-138.559
-26.4838
12.5256
27.1142
33.9839
38.247
41.4118
43.9149
45.8812
47.3489
48.3362
48.8603
48.9428
48.6106
47.8958
46.8345
45.4661
43.8322
41.9754
39.9384
37.763
35.4894
33.1555
30.7963
28.4434
26.1249
23.865
21.6843
19.5994
17.6234
15.7657
14.0329
12.4285
10.9535
9.60661
8.38489
7.28373
6.29738
5.41919
4.64189
3.95785
3.35926
2.83835
2.38747
1.9993
1.66685
1.38361
1.1435
0.940986
0.771019
0.629066
0.51108
0.413482
0.33313
0.267283
0.213573
0.169961
0.13471
0.106343
0.0836185
0.0654931
0.051099
0.0397176
0.0307567
0.0237316
0.0182472
0.0139835
0.0106825
0.00813748
0.00618326
0.00468881
0.0035506
0.00268722
0.00203496
0.0015442
0.00117647
0.000902086
0.000698239
0.000547489
0.000436554
0.000355368
0.000296333
0.000253742
0.000223323
0.000201895
0.000187101
0.000177198
0.000170909
0.000167299
0.000165687
0.000165583
0.000166635
0.000168593
0.000171282
0.000174576
0.000178409
0.000183034
4874.27
-544.273
-413.059
-138.569
-26.4952
12.5124
27.0996
33.9682
38.2308
41.3955
43.8989
45.866
47.335
48.3239
48.8499
48.9346
48.6049
47.8926
46.834
45.4683
43.837
41.9827
39.948
37.7747
35.503
33.1708
30.8129
28.4611
26.1434
23.8841
21.7036
19.6188
17.6425
15.7844
14.051
12.4459
10.97
9.6222
8.39948
7.29728
6.30987
5.43062
4.65229
3.96724
3.36769
2.84586
2.39413
2.00516
1.67199
1.38808
1.14737
0.944314
0.773867
0.631489
0.51313
0.415206
0.334571
0.268481
0.214562
0.170773
0.135372
0.106879
0.0840489
0.0658356
0.0513688
0.0399275
0.0309176
0.0238525
0.0183357
0.0140458
0.0107238
0.00816195
0.00619432
0.00468924
0.00354261
0.00267259
0.0020151
0.00152023
0.00114926
0.000872312
0.000666427
0.000514037
0.000401763
0.00031946
0.000259471
0.000216037
0.000184849
0.000162698
0.0001472
0.000136596
0.000129592
0.000125243
0.000122858
0.000121939
0.000122129
0.000123172
0.00012489
0.000127155
0.000129896
0.000133274
4874.27
-544.278
-413.068
-138.58
-26.509
12.4963
27.0816
33.9489
38.2107
41.3751
43.8788
45.8467
47.3169
48.3075
48.8357
48.9228
48.5958
47.8864
46.8307
45.468
43.8397
41.9883
39.9563
37.7855
35.516
33.1857
30.8295
28.479
26.1623
23.9037
21.7237
19.6389
17.6625
15.8041
14.0702
12.4643
10.9876
9.63883
8.41507
7.31179
6.32328
5.44292
4.66349
3.97737
3.37679
2.85399
2.40134
2.01152
1.67757
1.39294
1.15158
0.947943
0.776976
0.634137
0.515373
0.417096
0.336154
0.2698
0.215654
0.171673
0.136108
0.107478
0.0845323
0.0662231
0.051677
0.0401703
0.0311068
0.023998
0.0184458
0.0141273
0.0107824
0.00820209
0.00621981
0.00470311
0.00354731
0.00267006
0.00200689
0.00150756
0.0011331
0.000853412
0.00064537
0.000491271
0.000377629
0.000294214
0.0002333
0.000189077
0.000157197
0.000134415
0.000118326
0.000107148
9.95742e-05
9.46449e-05
9.16619e-05
9.01191e-05
8.96526e-05
9.00028e-05
9.0987e-05
9.24775e-05
9.43973e-05
9.68419e-05
4874.27
-544.284
-413.077
-138.593
-26.5256
12.477
27.06
33.9256
38.1863
41.3502
43.854
45.8226
47.2942
48.2866
48.817
48.9068
48.5828
47.8766
46.8243
45.465
43.84
41.9918
39.9629
37.795
35.5281
33.2001
30.8458
28.497
26.1815
23.9238
21.7444
19.6599
17.6834
15.8248
14.0903
12.4838
11.0062
9.65651
8.4317
7.3273
6.33763
5.45611
4.67552
3.98827
3.3866
2.86276
2.40913
2.0184
1.6836
1.3982
1.15615
0.951884
0.780355
0.637019
0.517818
0.419158
0.337884
0.271243
0.216852
0.172661
0.136919
0.108139
0.0850685
0.0666551
0.0520226
0.0404447
0.0313229
0.0241665
0.0185756
0.014226
0.0108559
0.00825562
0.00625738
0.00472801
0.00356221
0.00267709
0.00200774
0.00150359
0.00112536
0.000842729
0.000632389
0.000476487
0.000361422
0.000276872
0.000215039
0.000170056
0.00013753
0.000114182
9.75795e-05
8.59214e-05
7.78828e-05
7.24925e-05
6.90423e-05
6.70184e-05
6.6051e-05
6.5876e-05
6.6307e-05
6.72148e-05
6.85186e-05
7.02684e-05
4874.27
-544.291
-413.089
-138.609
-26.5452
12.4541
27.0344
33.8979
38.1571
41.3203
43.8241
45.7934
47.2663
48.2606
48.7935
48.8862
48.5654
47.8628
46.8142
45.4587
43.8375
41.993
39.9676
37.803
35.5391
33.2137
30.8617
28.5148
26.2009
23.9443
21.7656
19.6815
17.7052
15.8464
14.1115
12.5043
11.0259
9.67527
8.44938
7.34383
6.35296
5.47021
4.6884
3.99996
3.39713
2.87218
2.41752
2.02581
1.69011
1.40389
1.16109
0.956147
0.784015
0.640144
0.52047
0.421398
0.339765
0.272815
0.218158
0.17374
0.137806
0.108864
0.085658
0.0671315
0.0524053
0.0407501
0.0315649
0.0243568
0.018724
0.0143404
0.0109431
0.00832096
0.00630534
0.0047622
0.00358552
0.00269184
0.0020158
0.00150641
0.0011241
0.000838306
0.000625503
0.000467685
0.000351123
0.000265396
0.000202628
0.000156891
0.000123743
9.98694e-05
8.28069e-05
7.07336e-05
6.23071e-05
5.65429e-05
5.27226e-05
5.03245e-05
4.89727e-05
4.83985e-05
4.84123e-05
4.88825e-05
4.97256e-05
5.09594e-05
4874.26
-544.299
-413.102
-138.627
-26.5683
12.4272
27.0043
33.8653
38.1228
41.2851
43.7887
45.7586
47.2328
48.2291
48.7646
48.8605
48.5433
47.8446
46.8001
45.4488
43.8319
41.9915
39.9701
37.8092
35.5487
33.2264
30.877
28.5323
26.2202
23.965
21.7873
19.7039
17.7278
15.8689
14.1337
12.5259
11.0467
9.6951
8.46812
7.36138
6.36926
5.48524
4.70216
4.01246
3.40841
2.88229
2.42652
2.03378
1.69712
1.41001
1.16641
0.960745
0.787966
0.643519
0.523339
0.423822
0.341803
0.274519
0.219575
0.174913
0.138771
0.109655
0.0863017
0.0676529
0.0528252
0.0410864
0.0318325
0.0245684
0.01889
0.0144697
0.0110428
0.008397
0.00636254
0.00480444
0.00361596
0.00271301
0.0020297
0.00151464
0.00112793
0.000838712
0.00062326
0.000463393
0.000345243
0.000258282
0.000194547
0.000148045
0.000114282
8.99027e-05
7.24143e-05
5.99703e-05
5.12099e-05
4.51347e-05
4.10153e-05
3.83221e-05
3.66726e-05
3.57935e-05
3.54916e-05
3.56333e-05
3.61324e-05
3.69842e-05
4874.26
-544.31
-413.119
-138.65
-26.5956
12.3956
26.9693
33.8275
38.083
41.244
43.7473
45.7176
47.1932
48.1917
48.73
48.8293
48.516
47.8215
46.7816
45.435
43.8228
41.987
39.9701
37.8133
35.5567
33.2378
30.8916
28.5494
26.2395
23.986
21.8095
19.7269
17.7512
15.8924
14.1569
12.5486
11.0686
9.71601
8.48792
7.37997
6.38657
5.50123
4.71681
4.02578
3.42045
2.8931
2.43615
2.04231
1.70463
1.41659
1.17213
0.965688
0.792216
0.647154
0.52643
0.426437
0.344003
0.27636
0.221108
0.176182
0.139817
0.110512
0.0870008
0.06822
0.0532829
0.0414537
0.0321257
0.024801
0.0190734
0.0146133
0.0111544
0.00848304
0.00642817
0.00485389
0.00365263
0.00273964
0.00204847
0.00152728
0.00113581
0.000842903
0.000624602
0.000462538
0.000342694
0.000254426
0.000189678
0.000142387
0.000108001
8.31239e-05
6.52279e-05
5.24413e-05
4.33838e-05
3.70418e-05
3.26747e-05
2.9744e-05
2.78608e-05
2.67467e-05
2.62049e-05
2.60995e-05
2.63419e-05
2.69118e-05
4874.26
-544.325
-413.141
-138.678
-26.6291
12.3579
26.9282
33.7837
38.037
41.1966
43.6994
45.6702
47.1471
48.1478
48.6891
48.792
48.483
47.7932
46.7583
45.4169
43.8098
41.9792
39.9672
37.8152
35.5629
33.2479
30.9051
28.566
26.2585
24.007
21.832
19.7504
17.7753
15.9167
14.181
12.5722
11.0915
9.73801
8.50881
7.39962
6.4049
5.51818
4.73237
4.03996
3.43328
2.90462
2.44643
2.05143
1.71266
1.42362
1.17825
0.970988
0.796776
0.651056
0.52975
0.429248
0.346369
0.278342
0.222759
0.177551
0.140946
0.111438
0.0877568
0.068834
0.053779
0.0418526
0.0324446
0.0250547
0.0192741
0.014771
0.0112777
0.00857862
0.00650173
0.00490998
0.00369492
0.00277109
0.00207143
0.00154362
0.00114701
0.000850128
0.000628762
0.000464338
0.000342683
0.000253023
0.000187207
0.00013909
0.000104064
7.86842e-05
6.03871e-05
4.72736e-05
3.79423e-05
3.13638e-05
2.6785e-05
2.36584e-05
2.1588e-05
2.02904e-05
1.95648e-05
1.92728e-05
1.93238e-05
1.96859e-05
4874.24
-544.354
-413.179
-138.72
-26.6742
12.3102
26.8787
33.7325
37.9841
41.1424
43.6447
45.6159
47.0941
48.0971
48.6416
48.7485
48.444
47.7593
46.7298
45.3941
43.7928
41.9679
39.9613
37.8145
35.567
33.2565
30.9176
28.5818
26.2772
24.028
21.8548
19.7744
17.8001
15.9418
14.2061
12.5969
11.1156
9.76109
8.53078
7.42033
6.42425
5.53611
4.74885
4.055
3.4469
2.91687
2.45738
2.06114
1.72123
1.43113
1.18479
0.976653
0.801656
0.655234
0.533308
0.432261
0.348908
0.280469
0.224533
0.179022
0.14216
0.112435
0.0885712
0.069496
0.0543145
0.0422836
0.0327898
0.0253297
0.019492
0.0149428
0.0114123
0.00868352
0.0065829
0.00497234
0.00374242
0.0028069
0.00209809
0.00156316
0.00116101
0.000859852
0.000635189
0.000468233
0.000344637
0.000253493
0.000186541
0.000137555
0.000101862
7.5965e-05
5.72639e-05
4.38296e-05
3.42379e-05
2.74422e-05
2.26764e-05
1.93831e-05
1.71591e-05
1.57153e-05
1.48471e-05
1.44132e-05
1.4321e-05
1.45305e-05
4874.21
-544.437
-413.269
-138.8
-26.7462
12.2425
26.8144
33.6701
37.9222
41.0802
43.5824
45.5542
47.0339
48.0394
48.5873
48.6984
48.3988
47.7197
46.6961
45.3665
43.7715
41.9528
39.9523
37.8112
35.5691
33.2634
30.9289
28.5969
26.2955
24.0489
21.8777
19.7988
17.8255
15.9677
14.2321
12.6226
11.1406
9.78526
8.55384
7.44212
6.44465
5.55504
4.76628
4.07092
3.46134
2.92987
2.469
2.07147
1.73034
1.43912
1.19176
0.982695
0.806862
0.659695
0.53711
0.435482
0.351624
0.282746
0.226432
0.180598
0.143461
0.113504
0.0894454
0.0702072
0.0548903
0.0427474
0.0331616
0.0256263
0.0197274
0.0151287
0.0115584
0.00879762
0.00667153
0.00504075
0.00379486
0.00284678
0.00212815
0.00158555
0.00117745
0.000871697
0.000643492
0.000473819
0.000348144
0.000255414
0.000187254
0.000137347
0.000100952
7.45179e-05
5.5403e-05
4.16464e-05
3.17998e-05
2.4798e-05
1.98612e-05
1.64213e-05
1.40674e-05
1.25043e-05
1.15235e-05
1.09805e-05
1.07807e-05
1.08783e-05
4874.07
-544.733
-413.546
-139
-26.8886
12.1301
26.7201
33.5871
37.8453
41.0063
43.5101
45.4835
46.9654
47.9738
48.5255
48.6412
48.3471
47.6739
46.6568
45.3339
43.7457
41.9338
39.9399
37.8051
35.5689
33.2687
30.9389
28.6112
26.3133
24.0697
21.9009
19.8237
17.8516
15.9944
14.259
12.6493
11.1667
9.81052
8.57799
7.46499
6.46609
5.57498
4.78466
4.08774
3.4766
2.94363
2.48132
2.08242
1.74002
1.44762
1.19917
0.98912
0.812402
0.664445
0.54116
0.438917
0.35452
0.285176
0.228461
0.182283
0.144853
0.114648
0.0903811
0.0709689
0.0555072
0.0432448
0.0335606
0.0259449
0.0199806
0.0153289
0.0117159
0.00892092
0.00676754
0.0051151
0.0038521
0.00289055
0.00216137
0.00161056
0.00119609
0.000885399
0.000653398
0.000480814
0.000352914
0.000258488
0.000189039
0.000138155
0.000101017
7.40202e-05
5.4476e-05
4.03901e-05
3.02881e-05
2.30853e-05
1.79869e-05
1.44135e-05
1.19458e-05
1.02827e-05
9.21084e-06
8.58283e-06
8.30169e-06
8.31719e-06
4873.49
-545.872
-414.504
-139.586
-27.2225
11.9171
26.5645
33.462
37.7372
40.9078
43.4175
45.3953
46.8813
47.8941
48.4508
48.5723
48.2845
47.6183
46.6085
45.2933
43.7128
41.9086
39.9222
37.7946
35.565
33.2709
30.9467
28.6237
26.33
24.0898
21.9237
19.8487
17.878
16.0217
14.2867
12.6769
11.1938
9.83677
8.60317
7.48888
6.48855
5.59589
4.80397
4.10542
3.49268
2.95813
2.49432
2.09399
1.75025
1.4566
1.20702
0.995932
0.81828
0.669488
0.545462
0.442567
0.3576
0.287762
0.23062
0.184077
0.146336
0.115868
0.0913792
0.0717818
0.0561661
0.0437763
0.0339874
0.0262858
0.0202517
0.0155435
0.0118849
0.00905346
0.00687093
0.00519534
0.00391404
0.00293809
0.00219764
0.00163804
0.00121674
0.000900778
0.000664717
0.000489019
0.000358741
0.000262504
0.000191681
0.000139757
0.000101833
7.42419e-05
5.42486e-05
3.98219e-05
2.94597e-05
2.20562e-05
1.68006e-05
1.31017e-05
1.05311e-05
8.78117e-06
7.63381e-06
6.93818e-06
6.59502e-06
6.55064e-06
4871.27
-550.093
-417.82
-141.403
-28.0868
11.4823
26.2965
33.2585
37.5617
40.7471
43.2668
45.2526
46.7461
47.7665
48.3312
48.4613
48.1828
47.5265
46.5272
45.2228
43.6532
41.8598
39.8839
37.7662
35.546
33.2604
30.9439
28.6277
26.3399
24.1046
21.9425
19.8705
17.9022
16.0475
14.3134
12.704
11.2208
9.86326
8.62878
7.51333
6.51165
5.6175
4.824
4.12382
3.50945
2.9733
2.50793
2.10612
1.76099
1.46606
1.21528
1.00311
0.824482
0.674813
0.550009
0.446428
0.360861
0.290501
0.232908
0.185979
0.147909
0.117163
0.0924396
0.0726459
0.0568669
0.0443419
0.0344418
0.0266492
0.0205409
0.0157726
0.0120655
0.00919519
0.00698163
0.00528139
0.0039806
0.00298932
0.00223685
0.00166787
0.00123929
0.000917706
0.000677313
0.000498294
0.00036548
0.000267314
0.000195027
0.000141997
0.000103239
7.50207e-05
5.45553e-05
3.97732e-05
2.91428e-05
2.15355e-05
1.61237e-05
1.23034e-05
9.63683e-06
7.80914e-06
6.59723e-06
5.84666e-06
5.45575e-06
5.36795e-06
4866.26
-563.125
-428.238
-146.769
-30.3423
10.5733
25.8562
32.9476
37.2709
40.4492
42.9597
44.941
46.4353
47.4614
48.036
48.1797
47.9179
47.2809
46.3029
45.0211
43.475
41.705
39.752
37.6563
35.4567
33.19
30.8906
28.5897
26.3151
24.0911
21.9386
19.8744
17.9123
16.0625
14.3319
12.725
11.2433
9.88651
8.65216
7.53634
6.53388
5.63866
4.84388
4.1423
3.52643
2.98877
2.5219
2.11863
1.77211
1.47587
1.22389
1.01061
0.830966
0.68039
0.554778
0.450482
0.364289
0.293383
0.235319
0.187985
0.149569
0.11853
0.09356
0.0735596
0.0576084
0.0449408
0.0349232
0.0270343
0.0208476
0.0160158
0.0122574
0.00934592
0.00709949
0.00537312
0.00405166
0.0030441
0.00227888
0.00169995
0.00126364
0.000936079
0.000691083
0.000508535
0.000373026
0.000272809
0.00019897
0.000144766
0.000105125
7.62436e-05
5.52813e-05
4.01272e-05
2.92182e-05
2.14019e-05
1.58325e-05
1.18925e-05
9.13391e-06
7.23461e-06
5.966e-06
5.16984e-06
4.74186e-06
4.62314e-06
4906.57
-579.762
-452.179
-159.606
-35.3893
8.84563
25.2504
32.6299
36.9587
40.0574
42.4745
44.375
45.8105
46.8015
47.3629
47.5124
47.2719
46.6683
45.7326
44.4992
43.0051
41.2887
39.3891
37.3449
35.194
32.9725
30.7141
28.4496
26.207
24.0106
21.8813
19.8365
17.8902
16.0529
14.3322
12.7327
11.2565
9.90337
8.67138
7.55684
6.5548
5.65935
4.86385
4.16122
3.54408
3.00501
2.53668
2.13195
1.78399
1.48639
1.23312
1.01866
0.837936
0.686388
0.559906
0.454841
0.367973
0.296479
0.237907
0.190137
0.15135
0.119996
0.0947606
0.0745382
0.0584022
0.0455816
0.0354382
0.0274463
0.0211756
0.0162758
0.0124626
0.00950708
0.00722553
0.00547126
0.00412773
0.0031028
0.00232397
0.00173442
0.00128987
0.000955935
0.000706034
0.000519725
0.000381345
0.000278946
0.000203454
0.000148004
0.000107426
7.78415e-05
5.63545e-05
4.08093e-05
2.96093e-05
2.15765e-05
1.58461e-05
1.1786e-05
8.93762e-06
6.97077e-06
5.65116e-06
4.81649e-06
4.35979e-06
4.22013e-06
5833.78
-381.612
-446.032
-171.367
-41.6828
6.45242
24.5127
32.5935
37.3074
40.6856
43.3297
45.4134
46.9885
48.0765
48.6954
48.8668
48.618
47.9809
46.9918
45.69
44.1171
42.3155
40.3276
38.1951
35.958
33.6542
31.3184
28.9826
26.6747
24.4194
22.2375
20.146
18.1585
16.2851
14.5329
12.9059
11.4058
10.0321
8.78222
7.65219
6.63676
5.72973
4.92421
4.21291
3.58827
3.04272
2.56878
2.15922
1.8071
1.50591
1.24957
1.03247
0.849506
0.696042
0.567935
0.461495
0.373467
0.301
0.241612
0.193163
0.153811
0.12199
0.0963706
0.0758328
0.0594393
0.0464091
0.0360958
0.0279669
0.0215863
0.0165983
0.012715
0.0097038
0.00737826
0.00558937
0.00421871
0.00317261
0.00237732
0.00177504
0.00132067
0.000979184
0.000723513
0.000532808
0.000391092
0.000286172
0.00020878
0.000151905
0.000110262
7.98847e-05
5.78088e-05
4.18279e-05
3.03065e-05
2.20373e-05
1.61335e-05
1.19466e-05
9.00571e-06
6.97177e-06
5.604e-06
4.73554e-06
4.25656e-06
4.105e-06
)
;

boundaryField
{
    xmin
    {
        type            calculated;
        value           uniform 0;
    }
    xmax
    {
        type            calculated;
        value           nonuniform List<scalar> 
100
(
5104.56
-333.911
-390.278
-149.946
-36.4725
5.64587
21.4486
28.5193
32.644
35.5999
37.9135
39.7367
41.1149
42.0669
42.6084
42.7585
42.5407
41.9833
41.1178
39.9788
38.6025
37.026
35.2866
33.4207
31.4633
29.4474
27.4036
25.3597
23.3404
21.367
19.4578
17.6278
15.8887
14.2495
12.7163
11.2927
9.9801
8.77808
7.68444
6.69567
5.80717
5.01351
4.30869
3.68629
3.13973
2.66238
2.24769
1.88932
1.58121
1.31767
1.09337
0.903415
0.743318
0.609037
0.496943
0.403808
0.326784
0.263375
0.211411
0.169018
0.134585
0.106742
0.0843246
0.0663541
0.0520097
0.0406083
0.0315842
0.0244714
0.0188883
0.0145238
0.0111259
0.00849114
0.00645629
0.00489101
0.00369169
0.00277636
0.00208048
0.00155348
0.00115591
0.000857116
0.000633407
0.000466544
0.000342547
0.000250746
0.000183034
0.000133274
9.68419e-05
7.02684e-05
5.09594e-05
3.69842e-05
2.69118e-05
1.96859e-05
1.45305e-05
1.08783e-05
8.31719e-06
6.55064e-06
5.36795e-06
4.62314e-06
4.22013e-06
4.105e-06
)
;
    }
    ymin
    {
        type            calculated;
        value           uniform 0;
    }
    ymax
    {
        type            calculated;
        value           nonuniform List<scalar> 
100
(
5833.78
-381.612
-446.032
-171.367
-41.6828
6.45242
24.5127
32.5935
37.3074
40.6856
43.3297
45.4134
46.9885
48.0765
48.6954
48.8668
48.618
47.9809
46.9918
45.69
44.1171
42.3155
40.3276
38.1951
35.958
33.6542
31.3184
28.9826
26.6747
24.4194
22.2375
20.146
18.1585
16.2851
14.5329
12.9059
11.4058
10.0321
8.78222
7.65219
6.63676
5.72973
4.92421
4.21291
3.58827
3.04272
2.56878
2.15922
1.8071
1.50591
1.24957
1.03247
0.849506
0.696042
0.567935
0.461495
0.373467
0.301
0.241612
0.193163
0.153811
0.12199
0.0963706
0.0758328
0.0594393
0.0464091
0.0360958
0.0279669
0.0215863
0.0165983
0.012715
0.0097038
0.00737826
0.00558937
0.00421871
0.00317261
0.00237732
0.00177504
0.00132067
0.000979184
0.000723513
0.000532808
0.000391092
0.000286172
0.00020878
0.000151905
0.000110262
7.98847e-05
5.78088e-05
4.18279e-05
3.03065e-05
2.20373e-05
1.61335e-05
1.19466e-05
9.00571e-06
6.97177e-06
5.604e-06
4.73554e-06
4.25656e-06
4.105e-06
)
;
    }
    frontAndBack
    {
        type            empty;
    }
}


// ************************************************************************* //
