/*--------------------------------*- C++ -*----------------------------------*\
  =========                 |
  \\      /  F ield         | OpenFOAM: The Open Source CFD Toolbox
   \\    /   O peration     | Website:  https://openfoam.org
    \\  /    A nd           | Version:  10
     \\/     M anipulation  |
\*---------------------------------------------------------------------------*/
FoamFile
{
    format      ascii;
    class       volScalarField;
    location    "2.5";
    object      ddt0(T);
}
// * * * * * * * * * * * * * * * * * * * * * * * * * * * * * * * * * * * * * //

dimensions      [0 0 -1 1 0 0 0];

internalField   nonuniform List<scalar> 
10000
(
7763.63
4039.41
3947.39
4005.85
4027.93
4034.33
4036.2
4036.83
4037.11
4037.27
4037.4
4037.51
4037.61
4037.7
4037.77
4037.84
4037.9
4037.95
4037.98
4038.01
4038.03
4038.05
4038.06
4038.06
4038.05
4038.04
4038.03
4038.01
4037.99
4037.97
4037.95
4037.92
4037.9
4037.87
4037.84
4037.82
4037.79
4037.77
4037.75
4037.73
4037.71
4037.69
4037.67
4037.65
4037.64
4037.62
4037.61
4037.6
4037.59
4037.58
4037.57
4037.57
4037.56
4037.56
4037.55
4037.55
4037.54
4037.54
4037.54
4037.54
4037.54
4037.53
4037.53
4037.53
4037.53
4037.53
4037.53
4037.53
4037.53
4037.53
4037.53
4037.53
4037.53
4037.53
4037.53
4037.53
4037.53
4037.53
4037.53
4037.53
4037.53
4037.53
4037.53
4037.52
4037.52
4037.52
4037.52
4037.52
4037.52
4037.52
4037.51
4037.51
4037.5
4037.48
4037.37
4036.91
4035.01
4029.93
4056.6
4804.04
4647.44
-679.727
-720.961
-566.35
-507.751
-490.191
-484.959
-483.185
-482.397
-481.91
-481.53
-481.202
-480.911
-480.652
-480.423
-480.225
-480.055
-479.914
-479.801
-479.713
-479.65
-479.609
-479.588
-479.586
-479.6
-479.629
-479.67
-479.72
-479.78
-479.846
-479.916
-479.99
-480.067
-480.144
-480.22
-480.296
-480.369
-480.44
-480.508
-480.573
-480.633
-480.69
-480.742
-480.791
-480.836
-480.876
-480.913
-480.946
-480.976
-481.002
-481.026
-481.047
-481.065
-481.081
-481.095
-481.107
-481.117
-481.126
-481.134
-481.14
-481.145
-481.15
-481.153
-481.156
-481.159
-481.161
-481.163
-481.164
-481.165
-481.166
-481.166
-481.167
-481.167
-481.167
-481.168
-481.168
-481.169
-481.169
-481.17
-481.171
-481.172
-481.174
-481.175
-481.177
-481.18
-481.183
-481.186
-481.19
-481.194
-481.199
-481.205
-481.215
-481.233
-481.291
-481.508
-482.385
-485.799
-497.06
-514.786
-358.899
4545.27
-747.615
-668.888
-453.847
-373.265
-348.565
-341.002
-338.355
-337.132
-336.35
-335.728
-335.188
-334.706
-334.276
-333.897
-333.567
-333.286
-333.052
-332.864
-332.718
-332.612
-332.544
-332.51
-332.506
-332.53
-332.577
-332.645
-332.729
-332.828
-332.937
-333.055
-333.178
-333.304
-333.432
-333.56
-333.685
-333.808
-333.926
-334.039
-334.146
-334.247
-334.341
-334.429
-334.509
-334.584
-334.651
-334.712
-334.768
-334.817
-334.861
-334.9
-334.935
-334.965
-334.992
-335.015
-335.035
-335.052
-335.067
-335.08
-335.09
-335.099
-335.106
-335.113
-335.118
-335.122
-335.125
-335.128
-335.13
-335.131
-335.133
-335.134
-335.135
-335.135
-335.136
-335.136
-335.137
-335.138
-335.139
-335.14
-335.142
-335.144
-335.146
-335.149
-335.152
-335.156
-335.161
-335.166
-335.172
-335.179
-335.187
-335.197
-335.21
-335.234
-335.294
-335.488
-336.186
-338.725
-347.161
-367.713
-360.425
4588.52
-622.158
-486.379
-244.832
-154.026
-125.65
-116.715
-113.458
-111.875
-110.822
-109.97
-109.223
-108.556
-107.961
-107.436
-106.98
-106.591
-106.268
-106.007
-105.806
-105.661
-105.568
-105.522
-105.518
-105.552
-105.619
-105.714
-105.833
-105.971
-106.124
-106.289
-106.461
-106.638
-106.817
-106.995
-107.171
-107.342
-107.507
-107.665
-107.814
-107.955
-108.087
-108.21
-108.322
-108.426
-108.52
-108.606
-108.683
-108.752
-108.814
-108.869
-108.917
-108.96
-108.997
-109.029
-109.057
-109.081
-109.101
-109.119
-109.134
-109.146
-109.157
-109.165
-109.172
-109.178
-109.183
-109.186
-109.189
-109.191
-109.193
-109.195
-109.196
-109.197
-109.197
-109.198
-109.199
-109.2
-109.202
-109.203
-109.205
-109.208
-109.211
-109.215
-109.22
-109.225
-109.231
-109.239
-109.247
-109.257
-109.268
-109.281
-109.298
-109.324
-109.376
-109.511
-109.918
-111.222
-115.262
-125.339
-132.285
4606.05
-573.396
-417.475
-166.072
-71.0642
-40.9542
-31.2391
-27.5497
-25.6639
-24.3612
-23.2881
-22.3427
-21.4964
-20.7413
-20.0751
-19.4965
-19.0037
-18.5942
-18.2648
-18.0112
-17.8287
-17.7119
-17.6553
-17.6527
-17.6982
-17.7856
-17.9089
-18.0623
-18.2403
-18.4375
-18.6492
-18.8708
-19.0983
-19.3281
-19.5571
-19.7825
-20.002
-20.2138
-20.4163
-20.6083
-20.7891
-20.9582
-21.1151
-21.2599
-21.3926
-21.5137
-21.6234
-21.7223
-21.811
-21.8901
-21.9603
-22.0222
-22.0766
-22.1242
-22.1655
-22.2013
-22.2321
-22.2584
-22.2808
-22.2997
-22.3157
-22.3289
-22.34
-22.349
-22.3564
-22.3623
-22.367
-22.3707
-22.3737
-22.3759
-22.3777
-22.3791
-22.3802
-22.3812
-22.3822
-22.3834
-22.3847
-22.3863
-22.3884
-22.3909
-22.3941
-22.3981
-22.4029
-22.4086
-22.4154
-22.4234
-22.4327
-22.4433
-22.4555
-22.4695
-22.4857
-22.5056
-22.5331
-22.5794
-22.6751
-22.9037
-23.4988
-25.0807
-28.6582
-32.2862
4611.29
-558.6
-396.237
-141.366
-44.6646
-13.7106
-3.51563
0.504434
2.65656
4.1924
5.47603
6.61253
7.63139
8.54054
9.34234
10.0383
10.6305
11.1219
11.5167
11.8197
12.0368
12.1745
12.2395
12.2391
12.1808
12.0717
11.9193
11.7305
11.5122
11.2705
11.0116
10.7407
10.4627
10.1821
9.90271
9.62775
9.36004
9.10185
8.85502
8.62095
8.40062
8.1947
8.00353
7.82718
7.66548
7.51809
7.3845
7.26408
7.15612
7.05983
6.9744
6.89898
6.83275
6.77487
6.72454
6.68102
6.64358
6.61153
6.58427
6.56122
6.54185
6.52568
6.51229
6.50129
6.49234
6.48513
6.47938
6.47486
6.47133
6.4686
6.46649
6.46484
6.46349
6.46231
6.46114
6.45987
6.45836
6.45649
6.45412
6.45114
6.44741
6.4428
6.43719
6.43045
6.42244
6.41303
6.40209
6.3895
6.37509
6.35866
6.3398
6.3175
6.28888
6.24634
6.17154
6.02501
5.72701
5.12162
4.04744
2.81319
4612.87
-554.114
-389.65
-133.492
-36.0331
-4.6032
5.93273
10.2293
12.6235
14.3786
15.8626
17.1817
18.3653
19.4213
20.3521
21.1593
21.8454
22.4138
22.8694
23.218
23.4663
23.6218
23.6926
23.6872
23.6141
23.482
23.2993
23.0743
22.8149
22.5285
22.2219
21.9016
21.5733
21.2421
20.9124
20.5882
20.2726
19.9684
19.6776
19.4019
19.1425
18.9
18.675
18.4675
18.2772
18.1038
17.9466
17.805
17.678
17.5647
17.4643
17.3756
17.2977
17.2296
17.1705
17.1193
17.0753
17.0376
17.0056
16.9785
16.9557
16.9367
16.921
16.908
16.8975
16.8891
16.8823
16.877
16.8729
16.8697
16.8673
16.8654
16.8639
16.8625
16.8613
16.8599
16.8582
16.8562
16.8536
16.8503
16.8461
16.841
16.8347
16.8271
16.8181
16.8074
16.795
16.7808
16.7644
16.7459
16.7247
16.7005
16.6712
16.6322
16.5717
16.4662
16.2807
15.9883
15.6623
15.4118
4613.42
-552.541
-387.273
-130.533
-32.6506
-0.891545
9.9211
14.4634
17.082
19.0436
20.7174
22.2094
23.5489
24.7437
25.796
26.7076
27.4812
28.1209
28.6323
29.0218
29.2973
29.4673
29.5411
29.5281
29.4383
29.2814
29.0672
28.805
28.5037
28.172
27.8177
27.4479
27.0692
26.6875
26.3079
25.9347
25.5717
25.2218
24.8875
24.5707
24.2726
23.9942
23.7358
23.4974
23.279
23.08
22.8996
22.737
22.5913
22.4614
22.3461
22.2444
22.1551
22.077
22.0091
21.9505
21.9
21.8568
21.82
21.7889
21.7628
21.741
21.723
21.7082
21.6961
21.6864
21.6787
21.6727
21.668
21.6644
21.6616
21.6595
21.6579
21.6564
21.6551
21.6536
21.6519
21.6498
21.647
21.6435
21.639
21.6335
21.6267
21.6184
21.6085
21.5969
21.5833
21.5676
21.5497
21.5293
21.5062
21.4801
21.45
21.4132
21.3623
21.2806
21.1406
20.926
20.7514
20.9324
4613.67
-551.805
-386.12
-129.026
-30.8417
1.18476
12.2409
17.0084
19.8362
21.9918
23.844
25.4984
26.9842
28.3086
29.4741
30.4824
31.3366
32.0414
32.6028
33.0284
33.3268
33.5075
33.5809
33.5578
33.449
33.2655
33.0183
32.7178
32.374
31.9965
31.594
31.1747
30.7458
30.3138
29.8845
29.4628
29.0528
28.6578
28.2805
27.9231
27.587
27.273
26.9817
26.7131
26.467
26.2427
26.0396
25.8565
25.6924
25.5461
25.4163
25.3018
25.2012
25.1134
25.037
24.9709
24.9141
24.8655
24.8241
24.7892
24.7598
24.7353
24.715
24.6983
24.6848
24.6739
24.6652
24.6584
24.6532
24.6492
24.6461
24.6438
24.6421
24.6406
24.6392
24.6378
24.636
24.6338
24.631
24.6274
24.6228
24.617
24.6098
24.601
24.5906
24.5782
24.5637
24.5469
24.5276
24.5058
24.481
24.4533
24.422
24.3857
24.34
24.2723
24.1538
23.9471
23.7423
24.1932
4613.84
-551.326
-385.347
-127.982
-29.545
2.71762
13.9956
18.9715
21.9943
24.3308
26.3493
28.155
29.7765
31.2208
32.4904
33.5871
34.5144
35.2775
35.883
36.3392
36.6558
36.8432
36.9129
36.8765
36.7464
36.5345
36.2528
35.9128
35.5257
35.1019
34.6511
34.1821
33.7031
33.2212
32.7426
32.2728
31.8163
31.3768
30.9572
30.5598
30.1861
29.8373
29.5137
29.2154
28.9421
28.6931
28.4676
28.2644
28.0824
27.92
27.7761
27.649
27.5375
27.44
27.3553
27.2821
27.219
27.1651
27.1193
27.0805
27.0479
27.0207
26.9982
26.9798
26.9647
26.9527
26.9431
26.9356
26.9298
26.9254
26.9222
26.9197
26.9178
26.9164
26.915
26.9136
26.9119
26.9098
26.907
26.9034
26.8987
26.8928
26.8854
26.8764
26.8656
26.8527
26.8375
26.82
26.7998
26.7768
26.7508
26.7217
26.6891
26.6525
26.6091
26.5491
26.4426
26.2279
25.9448
26.6155
4613.97
-550.941
-384.717
-127.115
-28.4533
4.02418
15.5063
20.6749
23.8781
26.3821
28.5542
30.4992
32.2452
33.7991
35.1632
36.3396
37.332
38.1462
38.7894
39.2706
39.6005
39.7903
39.8526
39.8001
39.6461
39.4038
39.086
38.7055
38.2743
37.8037
37.3043
36.7857
36.2568
35.7252
35.1979
34.6805
34.1781
33.6947
33.2334
32.7967
32.3863
32.0032
31.648
31.3206
31.0207
30.7476
30.5002
30.2774
30.0777
29.8997
29.7419
29.6027
29.4804
29.3736
29.2808
29.2005
29.1314
29.0724
29.0221
28.9796
28.9439
28.9142
28.8895
28.8693
28.8528
28.8396
28.8292
28.821
28.8147
28.81
28.8065
28.8039
28.802
28.8005
28.7992
28.7979
28.7964
28.7944
28.7917
28.7882
28.7836
28.7777
28.7704
28.7613
28.7503
28.7372
28.7217
28.7037
28.6829
28.6592
28.6324
28.6023
28.5688
28.5315
28.4888
28.4331
28.3344
28.1117
27.7464
28.6059
4614.08
-550.604
-384.16
-126.346
-27.4786
5.19563
16.8652
22.2108
25.5797
28.237
30.5495
32.6213
34.4802
36.1328
37.5814
38.8284
39.8777
40.7355
41.4097
41.9102
42.2482
42.4361
42.4872
42.4156
42.2352
41.9604
41.6051
41.1829
40.7068
40.189
39.6408
39.0727
38.4941
37.9133
37.3376
36.7734
36.2258
35.6992
35.197
34.7218
34.2753
33.8587
33.4725
33.1167
32.7908
32.4941
32.2255
31.9835
31.7667
31.5735
31.4022
31.251
31.1184
31.0025
30.9017
30.8146
30.7397
30.6756
30.6211
30.575
30.5363
30.504
30.4773
30.4553
30.4375
30.4232
30.4119
30.4031
30.3963
30.3912
30.3875
30.3848
30.3829
30.3815
30.3803
30.3792
30.3778
30.376
30.3736
30.3703
30.3659
30.3603
30.3531
30.3441
30.3332
30.3201
30.3046
30.2865
30.2655
30.2415
30.2143
30.1837
30.1497
30.1119
30.0696
30.0163
29.9233
29.6962
29.2615
30.2766
4614.18
-550.3
-383.657
-125.65
-26.5963
6.2573
18.0976
23.6044
27.1237
29.9199
32.3592
34.545
36.5047
38.245
39.7679
41.076
42.1737
43.0675
43.7661
44.2798
44.6208
44.8023
44.8387
44.7446
44.5354
44.2262
43.8318
43.3669
42.8452
42.2798
41.6828
41.0653
40.4373
39.8077
39.1844
38.5739
37.9819
37.4129
36.8706
36.3576
35.8759
35.4266
35.0102
34.6267
34.2755
33.9559
33.6665
33.4059
33.1725
32.9645
32.7801
32.6174
32.4746
32.3499
32.2415
32.1478
32.0672
31.9982
31.9396
31.89
31.8484
31.8136
31.7848
31.7613
31.7421
31.7267
31.7146
31.7051
31.6979
31.6925
31.6886
31.6859
31.684
31.6826
31.6816
31.6807
31.6796
31.6781
31.6759
31.673
31.669
31.6636
31.6568
31.6482
31.6376
31.6248
31.6095
31.5916
31.5708
31.5469
31.5198
31.4892
31.4551
31.4173
31.3753
31.3239
31.2356
31.0079
30.5221
31.6569
4614.27
-550.026
-383.204
-125.022
-25.7997
7.21578
19.2101
24.8619
28.5163
31.4368
33.9889
36.2757
38.3241
40.1407
41.7276
43.0874
44.2249
45.1471
45.8631
46.3841
46.723
46.8937
46.9115
46.7921
46.5515
46.2059
45.7711
45.2624
44.6945
44.0812
43.4353
42.7686
42.0917
41.4139
40.7436
40.0876
39.452
38.8416
38.26
37.7102
37.1941
36.7129
36.2671
35.8567
35.481
35.139
34.8295
34.5509
34.3014
34.079
33.8819
33.7081
33.5555
33.4223
33.3065
33.2064
33.1203
33.0467
32.984
32.931
32.8866
32.8494
32.8187
32.7935
32.7731
32.7567
32.7437
32.7337
32.726
32.7204
32.7163
32.7135
32.7116
32.7104
32.7096
32.7089
32.7081
32.7069
32.7052
32.7027
32.6991
32.6943
32.6879
32.6799
32.6698
32.6575
32.6428
32.6254
32.6052
32.5818
32.5552
32.525
32.4913
32.454
32.4127
32.3631
32.279
32.054
31.5364
32.7547
4614.36
-549.781
-382.798
-124.46
-25.0872
8.07289
20.2045
25.9851
29.759
32.7891
35.4402
37.8148
39.9398
41.8214
43.4618
44.8639
46.0328
46.9757
47.7025
48.2249
48.5565
48.7121
48.7077
48.5599
48.2857
47.9019
47.4253
46.8719
46.2573
45.5959
44.9012
44.1857
43.4603
42.735
42.0184
41.3179
40.6396
39.9886
39.3688
38.7831
38.2335
37.7213
37.247
36.8104
36.4109
36.0474
35.7184
35.4223
35.1572
34.921
34.7117
34.5271
34.3651
34.2236
34.1007
33.9944
33.903
33.8248
33.7583
33.7021
33.6549
33.6155
33.5829
33.5562
33.5345
33.5171
33.5034
33.4927
33.4847
33.4787
33.4745
33.4717
33.4699
33.4688
33.4682
33.4678
33.4674
33.4666
33.4654
33.4634
33.4604
33.4561
33.4505
33.4431
33.4338
33.4223
33.4084
33.3918
33.3724
33.3499
33.3242
33.2949
33.2622
33.2258
33.1856
33.138
33.058
32.8386
32.3071
33.5749
4614.43
-549.564
-382.439
-123.964
-24.4576
8.82975
21.0818
26.9752
30.8533
33.9784
36.7146
39.1641
41.3536
43.2891
44.9729
46.408
47.5998
48.556
49.287
49.805
50.1244
50.2607
50.2307
50.0518
49.7416
49.318
48.7983
48.1995
47.5378
46.8282
46.085
45.3209
44.5477
43.7757
43.0137
42.2695
41.5495
40.859
40.2019
39.5813
38.9993
38.4571
37.9551
37.4932
37.0707
36.6863
36.3386
36.0257
35.7455
35.496
35.2749
35.0799
34.9088
34.7594
34.6296
34.5174
34.4209
34.3384
34.2682
34.2089
34.159
34.1174
34.083
34.0548
34.0319
34.0136
33.9991
33.9879
33.9794
33.9732
33.9689
33.966
33.9643
33.9634
33.9631
33.963
33.9629
33.9627
33.962
33.9606
33.9582
33.9547
33.9498
33.9433
33.9349
33.9244
33.9115
33.8961
33.8779
33.8566
33.8321
33.8043
33.7729
33.738
33.6994
33.6539
33.5783
33.3671
32.837
34.1237
4614.49
-549.376
-382.127
-123.531
-23.9096
9.48805
21.8442
27.8345
31.8017
35.0074
37.8152
40.327
42.5691
44.5477
46.2649
47.724
48.9306
49.8929
50.6217
51.1299
51.4324
51.5455
51.4865
51.2738
50.9257
50.4606
49.8969
49.2521
48.543
47.7853
46.9938
46.1819
45.3615
44.5435
43.7371
42.9503
42.1897
41.4606
40.7673
40.1129
39.4995
38.9282
38.3996
37.9133
37.4686
37.0641
36.6983
36.3692
36.0746
35.8123
35.5799
35.3749
35.1951
35.0381
34.9017
34.7839
34.6825
34.5958
34.522
34.4597
34.4073
34.3636
34.3274
34.2978
34.2738
34.2545
34.2393
34.2276
34.2188
34.2123
34.2079
34.205
34.2033
34.2026
34.2026
34.2028
34.2032
34.2035
34.2033
34.2026
34.201
34.1983
34.1943
34.1888
34.1815
34.1721
34.1605
34.1464
34.1296
34.1099
34.0871
34.0609
34.0314
33.9984
33.9618
33.919
33.8479
33.6471
33.1312
34.4103
4614.55
-549.215
-381.859
-123.161
-23.441
10.0504
22.4946
28.5665
32.6082
35.8805
38.7468
41.3086
43.5921
45.6032
47.3442
48.8187
50.0323
50.9939
51.7145
52.2076
52.4888
52.5749
52.484
52.235
51.8471
51.3394
50.7308
50.0395
49.2829
48.4773
47.638
46.7788
45.9121
45.0491
44.1993
43.3709
42.5708
41.8044
41.0761
40.389
39.7452
39.1459
38.5915
38.0817
37.6157
37.192
36.8088
36.4641
36.1557
35.8811
35.6378
35.4234
35.2352
35.071
34.9283
34.805
34.6989
34.6082
34.5311
34.4659
34.4111
34.3653
34.3275
34.2965
34.2714
34.2512
34.2354
34.2231
34.2139
34.2072
34.2027
34.1998
34.1983
34.1977
34.1979
34.1986
34.1994
34.2002
34.2007
34.2007
34.1999
34.1981
34.1951
34.1907
34.1845
34.1765
34.1663
34.1538
34.1387
34.1208
34.0999
34.0758
34.0484
34.0177
33.9837
33.9438
33.8778
33.6892
33.1973
34.4469
4614.59
-549.079
-381.635
-122.852
-23.049
10.5203
23.0372
29.176
33.278
36.6037
39.516
42.116
44.4299
46.4636
48.2194
49.701
50.9144
51.8687
52.5755
53.0487
53.3044
53.3601
53.2346
52.9473
52.518
51.9665
51.3123
50.5742
49.7702
48.9171
48.0305
47.1248
46.2128
45.3058
44.4137
43.5449
42.7065
41.904
41.1418
40.4232
39.7501
39.1239
38.5448
38.0125
37.526
37.0838
36.684
36.3245
36.0028
35.7165
35.4628
35.2392
35.0431
34.872
34.7233
34.5948
34.4843
34.3898
34.3094
34.2414
34.1843
34.1367
34.0973
34.0649
34.0387
34.0177
34.0012
33.9885
33.9789
33.972
33.9674
33.9645
33.963
33.9627
33.9632
33.9642
33.9655
33.9669
33.968
33.9687
33.9688
33.9679
33.966
33.9628
33.9579
33.9514
33.9428
33.932
33.9187
33.9028
33.8841
33.8624
33.8375
33.8095
33.7783
33.7416
33.681
33.5063
33.0458
34.2483
4614.63
-548.969
-381.452
-122.599
-22.7298
10.9022
23.4772
29.6688
33.8178
37.1842
40.1306
42.7579
45.092
47.1388
48.9009
50.3819
51.5882
52.5293
53.217
53.6658
53.8924
53.9147
53.7521
53.4246
52.9526
52.3565
51.6563
50.8714
50.0201
49.12
48.1869
47.2356
46.2792
45.3294
44.3962
43.4884
42.6129
41.7755
40.9807
40.2317
39.5305
38.8784
38.2757
37.7218
37.2157
36.7558
36.3402
35.9665
35.6322
35.3347
35.0712
34.8389
34.6353
34.4575
34.3031
34.1697
34.0549
33.9568
33.8733
33.8028
33.7435
33.694
33.653
33.6195
33.5922
33.5704
33.5533
33.54
33.5302
33.5231
33.5183
33.5154
33.5141
33.5139
33.5147
33.5161
33.5178
33.5197
33.5215
33.523
33.5239
33.5241
33.5233
33.5213
33.5178
33.5128
33.5059
33.4969
33.4857
33.472
33.4557
33.4365
33.4144
33.3893
33.3612
33.3282
33.2733
33.1135
32.6894
33.8316
4614.66
-548.882
-381.308
-122.4
-22.4793
11.2012
23.8207
30.0519
34.2353
37.6306
40.5999
43.2441
45.5889
47.6402
49.4006
50.874
52.067
52.9893
53.6532
54.0737
54.2678
54.254
54.0522
53.683
53.1673
52.526
51.7796
50.9479
50.0499
49.1034
48.1247
47.1288
46.1292
45.1378
44.1648
43.2191
42.3079
41.437
40.6108
39.8327
39.1046
38.4278
37.8024
37.2279
36.7031
36.2264
35.7957
35.4085
35.0622
34.7541
34.4812
34.2408
34.0299
33.8459
33.686
33.5479
33.4292
33.3276
33.2412
33.1682
33.1068
33.0556
33.0132
32.9784
32.9502
32.9276
32.9098
32.8962
32.8859
32.8786
32.8737
32.8709
32.8696
32.8696
32.8707
32.8724
32.8746
32.8771
32.8796
32.8818
32.8836
32.8848
32.8851
32.8844
32.8824
32.8789
32.8737
32.8667
32.8576
32.8462
32.8324
32.8159
32.7967
32.7748
32.7501
32.7208
32.6719
32.5277
32.1433
33.2156
4614.68
-548.817
-381.2
-122.252
-22.2925
11.4232
24.0742
30.3329
34.5392
37.9523
40.9344
43.5859
45.9326
47.9805
49.732
51.1913
52.3653
53.2639
53.8999
54.2885
54.4472
54.3951
54.1524
53.7403
53.1801
52.4932
51.7006
50.8226
49.8784
48.8863
47.8629
46.8236
45.782
44.7503
43.7389
42.7568
41.8112
40.9081
40.0519
39.2459
38.4921
37.7917
37.1447
36.5506
36.0081
35.5154
35.0703
34.6703
34.3127
33.9945
33.7127
33.4645
33.2468
33.0569
32.892
32.7494
32.6269
32.5221
32.4329
32.3575
32.2941
32.2413
32.1975
32.1616
32.1324
32.1091
32.0907
32.0766
32.066
32.0585
32.0535
32.0506
32.0494
32.0496
32.0509
32.053
32.0557
32.0587
32.0618
32.0648
32.0674
32.0696
32.0711
32.0716
32.071
32.0692
32.0658
32.0608
32.0538
32.0448
32.0336
32.02
32.0039
31.9852
31.964
31.9387
31.8958
31.7674
31.4242
32.4205
4614.7
-548.772
-381.125
-122.15
-22.1645
11.5743
24.2452
30.5201
34.7386
38.1596
41.1451
43.7953
46.136
48.1731
49.9093
51.3488
52.4988
53.3694
53.9737
54.3275
54.4484
54.356
54.0711
53.6152
53.01
52.2775
51.439
50.5151
49.5256
48.4889
47.422
46.3404
45.2582
44.1876
43.1393
42.1221
41.1436
40.2096
39.3247
38.4921
37.7139
36.991
36.3235
35.7108
35.1514
34.6436
34.1849
33.7729
33.4044
33.0767
32.7866
32.531
32.3069
32.1114
31.9417
31.795
31.6688
31.5609
31.4692
31.3916
31.3263
31.2719
31.2268
31.1898
31.1598
31.1357
31.1168
31.1022
31.0913
31.0836
31.0784
31.0755
31.0744
31.0747
31.0763
31.0787
31.0817
31.0852
31.0889
31.0927
31.0962
31.0993
31.1019
31.1037
31.1046
31.1043
31.1027
31.0997
31.0949
31.0883
31.0797
31.069
31.0559
31.0406
31.023
31.0017
30.9648
30.8523
30.5502
31.4676
4614.71
-548.745
-381.081
-122.089
-22.0897
11.6611
24.3412
30.6222
34.8433
38.2632
41.2436
43.8848
46.2124
48.2324
49.9475
51.3622
52.4838
53.3226
53.8922
54.2085
54.2897
54.1557
53.8276
53.3273
52.677
51.8991
51.0151
50.0461
49.0121
47.9319
46.8227
45.7004
44.579
43.4709
42.387
41.3363
40.3263
39.3629
38.4507
37.5928
36.7913
36.0471
35.3602
34.7299
34.1546
33.6325
33.161
32.7375
32.3589
32.0223
31.7243
31.4618
31.2317
31.0309
30.8566
30.706
30.5765
30.4657
30.3715
30.2918
30.2248
30.1688
30.1225
30.0845
30.0536
30.0288
30.0093
29.9943
29.9831
29.9752
29.9699
29.9669
29.9658
29.9663
29.968
29.9707
29.9742
29.9781
29.9824
29.9868
29.9911
29.9952
29.9989
30.0019
30.0042
30.0055
30.0056
30.0045
30.0019
29.9977
29.9917
29.9838
29.9739
29.962
29.9479
29.9306
29.8997
29.8024
29.5405
30.3784
4614.71
-548.735
-381.063
-122.066
-22.0626
11.6903
24.3701
30.6481
34.8632
38.274
41.242
43.8673
46.1756
48.1729
49.862
51.2475
52.3369
53.1409
53.6732
53.95
53.99
53.8132
53.4413
52.8964
52.2012
51.3782
50.4495
49.4364
48.3591
47.2366
46.0866
44.9248
43.7657
42.6217
41.5038
40.4211
39.3811
38.3897
37.4515
36.5697
35.7461
34.9818
34.2765
33.6295
33.0393
32.5037
32.0202
31.5859
31.1978
30.8527
30.5473
30.2784
30.0426
29.8369
29.6583
29.504
29.3714
29.2579
29.1614
29.0797
29.011
28.9537
28.9062
28.8672
28.8355
28.8101
28.79
28.7746
28.7631
28.7549
28.7495
28.7464
28.7454
28.7459
28.7478
28.7507
28.7545
28.7589
28.7637
28.7687
28.7738
28.7788
28.7834
28.7876
28.7912
28.794
28.7959
28.7966
28.7962
28.7943
28.7908
28.7858
28.7789
28.7702
28.7597
28.7464
28.7212
28.6385
28.4147
29.1745
4614.71
-548.738
-381.07
-122.076
-22.0778
11.6685
24.3397
30.6068
34.8085
38.2031
41.1521
43.7557
46.0393
48.0091
49.6679
51.0206
52.0748
52.8415
53.3344
53.5703
53.568
53.3479
52.9319
52.3426
51.6028
50.7355
49.7629
48.7067
47.5874
46.4241
45.2346
44.035
42.8397
41.6614
40.5111
39.3979
38.3294
37.3115
36.3487
35.4442
34.5998
33.8164
33.0939
32.4313
31.8269
31.2787
30.7838
30.3395
29.9425
29.5895
29.2772
29.0022
28.7611
28.5508
28.3683
28.2105
28.0749
27.9589
27.8602
27.7767
27.7065
27.6478
27.5992
27.5593
27.5268
27.5008
27.4802
27.4644
27.4525
27.4441
27.4385
27.4354
27.4343
27.4349
27.4369
27.44
27.4441
27.4489
27.4541
27.4597
27.4655
27.4713
27.4769
27.4821
27.487
27.4912
27.4947
27.4972
27.4987
27.4991
27.4981
27.4957
27.4918
27.4863
27.4792
27.4697
27.45
27.3809
27.1927
27.8773
4614.7
-548.755
-381.097
-122.115
-22.1295
11.6026
24.2579
30.5071
34.6889
38.0614
40.986
43.5627
45.8172
47.7555
49.3807
50.6976
51.7142
52.4415
52.8936
53.0875
53.0422
52.7786
52.3186
51.6853
50.9017
49.9909
48.9756
47.8776
46.7175
45.5149
44.2875
43.0517
41.8219
40.611
39.4298
38.2877
37.1921
36.1491
35.1631
34.2373
33.3733
32.5721
31.8334
31.1561
30.5385
29.9784
29.4729
29.0192
28.6139
28.2535
27.9348
27.654
27.408
27.1935
27.0072
26.8463
26.7079
26.5895
26.4888
26.4036
26.3319
26.272
26.2223
26.1815
26.1483
26.1216
26.1006
26.0843
26.0722
26.0635
26.0577
26.0545
26.0533
26.0539
26.056
26.0593
26.0636
26.0687
26.0744
26.0805
26.0869
26.0934
26.0998
26.1061
26.1121
26.1176
26.1226
26.1268
26.1302
26.1326
26.1339
26.1341
26.133
26.1305
26.1267
26.1208
26.1063
26.0498
25.894
26.5076
4614.69
-548.782
-381.142
-122.179
-22.2126
11.4989
24.1321
30.3578
34.5142
37.8596
40.7551
43.3008
45.5225
47.4261
49.0149
50.2938
51.2709
51.9575
52.3679
52.5192
52.4308
52.1236
51.6202
50.9434
50.1168
49.1638
48.107
46.9686
45.7694
44.529
43.2654
41.995
40.7324
39.4904
38.28
37.1106
35.9895
34.9229
33.9151
32.9691
32.0868
31.2689
30.5149
29.8239
29.194
28.6228
28.1075
27.645
27.2319
26.8647
26.5399
26.2539
26.0033
25.7848
25.5951
25.4311
25.2902
25.1696
25.067
24.9802
24.9071
24.8461
24.7954
24.7538
24.7199
24.6926
24.6711
24.6544
24.6419
24.633
24.627
24.6236
24.6224
24.623
24.6252
24.6286
24.633
24.6384
24.6444
24.6509
24.6578
24.6649
24.6722
24.6793
24.6863
24.6931
24.6994
24.7051
24.7103
24.7146
24.7181
24.7206
24.7221
24.7225
24.7218
24.7193
24.7095
24.6645
24.5379
25.0853
4614.68
-548.817
-381.201
-122.263
-22.3217
11.3637
23.9698
30.167
34.2936
37.6077
40.4705
42.982
45.1679
47.0343
48.5847
49.8239
50.7603
51.4053
51.7735
51.8821
51.7507
51.4006
50.8542
50.1351
49.2667
48.2726
47.1758
45.9985
44.7618
43.4854
42.1873
40.884
39.5903
38.3189
37.081
35.8857
34.7407
33.6519
32.6236
31.6588
30.7593
29.9257
29.1576
28.4538
27.8124
27.2309
26.7064
26.2358
25.8154
25.4419
25.1115
24.8207
24.5658
24.3436
24.1506
23.984
23.8407
23.718
23.6137
23.5254
23.451
23.3889
23.3373
23.2949
23.2603
23.2325
23.2105
23.1934
23.1806
23.1714
23.1652
23.1616
23.1603
23.1609
23.163
23.1665
23.1711
23.1766
23.1829
23.1897
23.1971
23.2047
23.2126
23.2206
23.2285
23.2362
23.2438
23.2509
23.2576
23.2637
23.2692
23.2739
23.2778
23.2808
23.2829
23.2836
23.2781
23.2434
23.1425
23.6289
4614.67
-548.86
-381.273
-122.364
-22.4522
11.2028
23.7777
29.9426
34.0359
37.3156
40.1427
42.6175
44.7654
46.593
48.1034
49.302
50.197
50.8001
51.126
51.1921
51.0182
50.6258
50.0376
49.2772
48.3683
47.3347
46.1995
44.985
43.7125
42.4017
41.0709
39.7365
38.4133
37.1143
35.8504
34.6309
33.4635
32.3538
31.3064
30.3241
29.4086
28.5604
27.7791
27.0634
26.4113
25.8203
25.2873
24.8091
24.3821
24.0027
23.6671
23.3718
23.113
22.8873
22.6914
22.5222
22.3767
22.2522
22.1462
22.0565
21.981
21.9178
21.8654
21.8222
21.787
21.7586
21.7362
21.7187
21.7055
21.696
21.6896
21.6859
21.6844
21.6849
21.687
21.6904
21.6951
21.7007
21.7072
21.7144
21.722
21.7301
21.7386
21.7472
21.7559
21.7646
21.7731
21.7815
21.7896
21.7973
21.8045
21.8111
21.8172
21.8226
21.8272
21.8308
21.8293
21.8036
21.7252
22.156
4614.65
-548.909
-381.354
-122.478
-22.5994
11.0219
23.5623
29.6921
33.7494
36.9921
39.7816
42.2177
44.3264
46.1139
47.5836
48.741
49.5944
50.1556
50.4395
50.4638
50.2483
49.8147
49.1859
48.3855
47.4377
46.3661
45.1942
43.9443
42.6377
41.2944
39.9326
38.5689
37.218
35.8929
34.6047
33.3627
32.1742
31.0451
29.9799
28.9812
28.0509
27.1891
26.3956
25.6689
25.0069
24.407
23.8662
23.381
22.9478
22.563
22.2227
21.9232
21.6608
21.432
21.2334
21.0618
20.9142
20.788
20.6805
20.5895
20.5129
20.4488
20.3955
20.3517
20.3159
20.287
20.2641
20.2462
20.2327
20.2229
20.2163
20.2123
20.2107
20.211
20.213
20.2164
20.2211
20.2268
20.2334
20.2407
20.2486
20.2571
20.2659
20.2751
20.2844
20.2939
20.3034
20.3128
20.322
20.3311
20.3399
20.3482
20.3562
20.3637
20.3707
20.3768
20.3788
20.361
20.3019
20.6824
4614.63
-548.962
-381.442
-122.601
-22.7591
10.8259
23.3296
29.4221
33.4415
36.6457
39.396
41.7926
43.8611
45.6079
47.0367
48.1528
48.9648
49.4847
49.7274
49.7107
49.4547
48.9811
48.3131
47.4745
46.4893
45.3815
44.1746
42.8911
41.5523
40.1783
38.7873
37.396
36.0192
34.6698
33.3589
32.0957
30.8876
29.7406
28.6587
27.645
26.7008
25.8266
25.0217
24.2848
23.6137
23.0057
22.4576
21.966
21.5272
21.1373
20.7927
20.4893
20.2236
19.9919
19.7908
19.617
19.4676
19.3398
19.2309
19.1387
19.0611
18.9961
18.9421
18.8976
18.8612
18.8318
18.8085
18.7902
18.7764
18.7663
18.7594
18.7552
18.7534
18.7535
18.7554
18.7587
18.7634
18.769
18.7757
18.7831
18.7912
18.7999
18.8091
18.8186
18.8285
18.8385
18.8488
18.859
18.8693
18.8795
18.8896
18.8995
18.9091
18.9184
18.9274
18.9358
18.9408
18.9298
18.887
19.2225
4614.61
-549.018
-381.536
-122.732
-22.9275
10.6196
23.085
29.1387
33.1191
36.2839
38.9944
41.3508
43.3788
45.085
46.473
47.5483
48.3196
48.799
49.0014
48.945
48.6498
48.1378
47.4322
46.5569
45.5361
44.394
43.1539
41.8387
40.4696
39.0667
37.6484
36.2313
34.8302
33.4581
32.1261
30.8432
29.617
28.4532
27.3561
26.3283
25.3714
24.4856
23.6704
22.9241
22.2446
21.6291
21.0743
20.5768
20.1328
19.7384
19.3897
19.0829
18.8141
18.5798
18.3764
18.2006
18.0495
17.9202
17.8101
17.7168
17.6382
17.5724
17.5177
17.4726
17.4356
17.4058
17.382
17.3634
17.3492
17.3388
17.3316
17.3272
17.3251
17.3251
17.3268
17.33
17.3345
17.3401
17.3467
17.3542
17.3624
17.3712
17.3806
17.3904
17.4006
17.4112
17.422
17.433
17.4441
17.4552
17.4664
17.4775
17.4885
17.4994
17.5101
17.5204
17.5281
17.5229
17.4936
17.7888
4614.59
-549.076
-381.632
-122.867
-23.1012
10.407
22.8332
28.8476
32.7884
35.9134
38.5839
40.9002
42.888
44.554
45.9018
46.9372
47.6687
48.1087
48.2723
48.1775
47.8447
47.2959
46.5544
45.6443
44.5898
43.4151
42.1439
40.7988
39.4012
37.9713
36.5274
35.0863
33.6627
32.2695
30.9178
29.6168
28.3738
27.1946
26.0833
25.0426
24.074
23.1776
22.3528
21.5979
20.9107
20.2883
19.7275
19.2246
18.7758
18.3773
18.0249
17.7149
17.4433
17.2065
17.001
16.8235
16.6708
16.5402
16.4289
16.3346
16.2551
16.1886
16.1332
16.0875
16.0501
16.0198
15.9956
15.9766
15.9621
15.9514
15.9439
15.9392
15.9369
15.9366
15.9381
15.9411
15.9455
15.951
15.9575
15.9649
15.9731
15.9819
15.9914
16.0014
16.0119
16.0228
16.034
16.0455
16.0572
16.0691
16.0812
16.0933
16.1054
16.1176
16.1297
16.1416
16.1515
16.1511
16.1331
16.3925
4614.57
-549.135
-381.73
-123.004
-23.2772
10.1918
22.5787
28.5536
32.4549
35.5403
38.1712
40.4478
42.3961
44.0227
45.3314
46.3278
47.0209
47.4229
47.5491
47.4177
47.049
46.4652
45.6897
44.7466
43.6603
42.4551
41.1545
39.7814
38.3573
36.9022
35.4346
33.9711
32.5266
31.1139
29.744
28.4262
27.1678
25.9744
24.8501
23.7975
22.8181
21.912
21.0784
20.3157
19.6215
18.9929
18.4265
17.9187
17.4656
17.0632
16.7075
16.3946
16.1205
15.8815
15.6741
15.4949
15.3408
15.2089
15.0965
15.0013
14.9211
14.8538
14.7978
14.7516
14.7137
14.6829
14.6584
14.639
14.6242
14.6131
14.6054
14.6004
14.5978
14.5973
14.5986
14.6014
14.6055
14.6108
14.6172
14.6245
14.6326
14.6414
14.6509
14.6609
14.6715
14.6826
14.6941
14.7059
14.7181
14.7306
14.7433
14.7561
14.7692
14.7824
14.7957
14.8089
14.8205
14.8241
14.8151
15.0429
4614.56
-549.194
-381.827
-123.141
-23.4528
9.97717
22.325
28.261
32.1232
35.1697
37.7617
39.9996
41.9094
43.4978
44.7686
45.7276
46.3837
46.7493
46.8399
46.6736
46.2708
45.6539
44.8463
43.8723
42.7561
41.5223
40.1944
38.7952
37.3464
35.8679
34.3782
32.8941
31.4302
29.9995
28.613
27.2798
26.0071
24.8006
23.6644
22.6011
21.6118
20.6969
19.8553
19.0854
18.3848
17.7504
17.179
16.6667
16.2097
15.8038
15.4451
15.1295
14.8531
14.6122
14.403
14.2223
14.067
13.9339
13.8206
13.7246
13.6436
13.5757
13.5191
13.4724
13.434
13.4029
13.3779
13.3582
13.343
13.3317
13.3236
13.3183
13.3155
13.3147
13.3157
13.3182
13.3221
13.3272
13.3334
13.3405
13.3484
13.3571
13.3665
13.3765
13.3871
13.3983
13.4099
13.4219
13.4344
13.4472
13.4603
13.4738
13.4875
13.5014
13.5156
13.5298
13.5428
13.5496
13.5477
13.7477
4614.54
-549.252
-381.924
-123.275
-23.6257
9.76592
22.0755
27.9733
31.7975
34.806
37.3603
39.5608
41.4335
42.985
44.2195
45.1427
45.7636
46.0946
46.1514
45.952
45.5172
44.8692
44.0315
43.0284
41.8844
40.6238
39.2705
37.8472
36.3754
34.8753
33.3653
31.8621
30.3805
28.9332
27.5314
26.184
24.8983
23.68
22.5329
21.4597
20.4615
19.5384
18.6896
17.9131
17.2067
16.5672
15.9912
15.4748
15.0142
14.6053
14.2438
13.9258
13.6474
13.4046
13.1939
13.0118
12.8553
12.7212
12.607
12.5102
12.4286
12.3601
12.303
12.2558
12.217
12.1854
12.1601
12.1401
12.1246
12.1129
12.1045
12.099
12.0958
12.0947
12.0954
12.0977
12.1013
12.1061
12.112
12.1189
12.1266
12.1351
12.1443
12.1542
12.1647
12.1758
12.1874
12.1995
12.2121
12.2251
12.2385
12.2523
12.2664
12.2809
12.2956
12.3105
12.3247
12.3339
12.3376
12.513
4614.52
-549.308
-382.017
-123.406
-23.7941
9.56028
21.8328
27.6936
31.481
34.453
36.9711
39.1356
40.9727
42.4891
43.689
44.5782
45.1657
45.4641
45.4889
45.2586
44.7937
44.1165
43.2507
42.2206
41.0507
39.7654
38.3885
36.9428
35.4499
33.9299
32.4012
30.8805
29.3826
27.9202
26.5044
25.1441
23.8466
22.6174
21.4604
20.3782
19.3718
18.4414
17.586
16.8037
16.092
15.4478
14.8676
14.3476
13.8838
13.472
13.1081
12.788
12.5076
12.2632
12.0511
11.8678
11.7102
11.5752
11.4602
11.3627
11.2805
11.2114
11.1539
11.1062
11.067
11.0351
11.0094
10.9891
10.9732
10.9612
10.9526
10.9467
10.9432
10.9418
10.9422
10.9442
10.9475
10.952
10.9576
10.9642
10.9716
10.9799
10.9888
10.9985
11.0088
11.0197
11.0312
11.0432
11.0558
11.0688
11.0823
11.0962
11.1106
11.1253
11.1405
11.1559
11.1707
11.1819
11.1898
11.3436
4614.5
-549.362
-382.108
-123.533
-23.9565
9.36212
21.599
27.4243
31.1765
34.1136
36.5971
38.7274
40.5307
42.0139
43.1811
44.0381
44.5943
44.862
44.857
44.5976
44.1046
43.4003
42.5084
41.4533
40.2594
38.9513
37.5527
36.0864
34.5741
33.0358
31.4901
29.9534
28.4406
26.9644
25.5358
24.1638
22.8555
21.6164
20.4505
19.3601
18.3464
17.4094
16.548
15.7604
15.0439
14.3955
13.8116
13.2883
12.8216
12.4073
12.0411
11.719
11.437
11.1911
10.9778
10.7934
10.6348
10.499
10.3833
10.2851
10.2023
10.1328
10.0748
10.0267
9.98712
9.95486
9.92885
9.90816
9.89201
9.87973
9.87074
9.86455
9.86078
9.85907
9.85914
9.86077
9.86376
9.86794
9.8732
9.87943
9.88654
9.89445
9.90312
9.91249
9.92253
9.93319
9.94445
9.95628
9.96866
9.98157
9.99499
10.0089
10.0233
10.0381
10.0534
10.069
10.0844
10.0969
10.1078
10.2426
4614.48
-549.414
-382.194
-123.653
-24.1115
9.1729
21.3758
27.1675
30.8862
33.7902
36.2409
38.3389
40.1104
41.5623
42.6987
43.5257
44.0525
44.2916
44.2588
43.9725
43.4534
42.724
41.808
40.7297
39.5138
38.1847
36.7662
35.281
33.751
32.196
30.6346
29.0834
27.557
26.0683
24.6282
23.2455
21.9274
20.6795
19.5054
18.4077
17.3874
16.4444
15.5776
14.7852
14.0645
13.4123
12.825
12.2988
11.8294
11.4128
11.0447
10.7209
10.4373
10.1901
9.97562
9.79026
9.63081
9.49427
9.37789
9.27916
9.19582
9.12584
9.06743
9.01897
8.97906
8.94647
8.92015
8.89915
8.8827
8.87011
8.86081
8.85432
8.85022
8.84819
8.84793
8.84921
8.85185
8.85568
8.86057
8.86643
8.87317
8.88072
8.88902
8.89803
8.90771
8.91804
8.92898
8.94052
8.95262
8.96529
8.97849
8.99223
9.00648
9.02123
9.03647
9.05211
9.06762
9.08109
9.09419
9.21229
4614.47
-549.463
-382.276
-123.768
-24.2584
8.99374
21.1646
26.9244
30.6116
33.4845
35.9044
37.9721
39.7138
41.1364
42.2442
43.0432
43.5426
43.7552
43.6966
43.3854
42.8423
42.0898
41.1516
40.0521
38.8159
37.4676
36.0308
34.5285
32.9823
31.4121
29.8366
28.2721
26.7335
25.2334
23.7828
22.3905
21.0637
19.8077
18.6263
17.522
16.4957
15.5473
14.6757
13.879
13.1545
12.4989
11.9086
11.3797
10.9081
10.4894
10.1195
9.79415
9.50926
9.2609
9.04535
8.8591
8.69888
8.56167
8.4447
8.34545
8.26165
8.19126
8.13247
8.08366
8.04343
8.01054
7.98391
7.96262
7.94587
7.93299
7.92339
7.91658
7.91217
7.90981
7.90921
7.91014
7.91241
7.91586
7.92037
7.92584
7.93217
7.93931
7.9472
7.9558
7.96508
7.975
7.98554
7.99669
8.00842
8.02074
8.03361
8.04704
8.061
8.0755
8.09053
8.10599
8.12147
8.13548
8.14997
8.2534
4614.45
-549.509
-382.353
-123.875
-24.3964
8.82542
20.9662
26.6962
30.354
33.1977
35.5889
37.6284
39.3423
40.7378
41.8189
42.592
43.0662
43.2543
43.1719
42.8378
42.2726
41.4989
40.5404
39.4215
38.1669
36.801
35.3477
33.8298
32.2689
30.685
29.0966
27.5202
25.9705
24.4602
23.0001
21.5992
20.2644
19.0012
17.8133
16.703
15.6714
14.7182
13.8423
13.0418
12.3138
11.6552
11.0622
10.531
10.0573
9.63679
9.26529
8.93855
8.65245
8.40304
8.18658
7.99954
7.83863
7.70082
7.58332
7.48361
7.39939
7.32862
7.26949
7.22036
7.17983
7.14664
7.11973
7.09816
7.08113
7.06796
7.05806
7.05096
7.04623
7.04353
7.04259
7.04316
7.04506
7.04813
7.05224
7.05729
7.06319
7.0699
7.07734
7.08549
7.0943
7.10376
7.11384
7.12453
7.13581
7.14768
7.16012
7.17312
7.18668
7.2008
7.21545
7.23058
7.24584
7.26007
7.27534
7.36587
4614.44
-549.552
-382.424
-123.976
-24.5252
8.66842
20.7812
26.4835
30.1139
32.9305
35.2952
37.3085
38.9968
40.3671
41.4238
42.173
42.624
42.7895
42.6855
42.3303
41.745
40.9519
39.9749
38.8383
37.567
36.1852
34.7169
33.1849
31.6107
30.0144
28.4144
26.8272
25.2675
23.7481
22.2795
20.8708
19.529
18.2593
17.0655
15.95
14.9136
13.9561
13.0764
12.2724
11.5414
10.8801
10.2847
9.75139
9.27582
8.85373
8.48083
8.15285
7.86568
7.61535
7.39808
7.21033
7.04881
6.91046
6.79249
6.69235
6.60776
6.53666
6.4772
6.42778
6.38697
6.35352
6.32634
6.3045
6.2872
6.27375
6.26357
6.25617
6.25113
6.24811
6.24682
6.24703
6.24856
6.25123
6.25493
6.25955
6.26501
6.27126
6.27823
6.28589
6.29421
6.30316
6.31273
6.3229
6.33366
6.34501
6.35693
6.36942
6.38247
6.39608
6.41025
6.42491
6.43978
6.45396
6.46952
6.54872
4614.42
-549.592
-382.491
-124.069
-24.6445
8.52301
20.6099
26.2866
29.8916
32.6834
35.0235
37.0128
38.6775
40.0248
41.059
41.7863
42.2161
42.3611
42.2372
41.8629
41.2592
40.4486
39.4548
38.3023
37.0158
35.6197
34.1378
32.593
31.0068
29.3994
27.789
26.1922
24.6236
23.0959
21.6198
20.2041
18.8559
17.5805
16.3815
15.2612
14.2206
13.2593
12.3762
11.5691
10.8354
10.1717
9.57429
9.03908
8.56187
8.13836
7.7642
7.43514
7.14702
6.89586
6.67788
6.48951
6.32744
6.18861
6.07021
5.9697
5.88477
5.81336
5.75362
5.70393
5.66286
5.62915
5.60173
5.57964
5.56208
5.54837
5.53791
5.53022
5.52487
5.52153
5.51991
5.51976
5.52091
5.52319
5.52647
5.53066
5.53567
5.54144
5.54792
5.55507
5.56287
5.57128
5.5803
5.58991
5.60011
5.61087
5.62221
5.6341
5.64656
5.65958
5.67315
5.68723
5.70158
5.7155
5.73098
5.8002
4614.41
-549.629
-382.552
-124.154
-24.7543
8.38919
20.4523
26.1054
29.6873
32.4562
34.7739
36.7411
38.3842
39.7105
40.7242
41.4316
41.8421
41.9684
41.8265
41.435
40.8147
39.9882
38.9792
37.8123
36.5121
35.1031
33.6091
32.0528
30.456
28.8385
27.2188
25.6134
24.0368
22.5018
21.0189
19.5971
18.2433
16.9627
15.7591
14.6346
13.5902
12.6255
11.7394
10.9297
10.1936
9.52774
8.92843
8.39158
7.91293
7.48815
7.11289
6.78287
6.49391
6.24202
6.0234
5.83448
5.67193
5.53267
5.4139
5.31305
5.22782
5.15613
5.09613
5.04619
5.00489
4.97095
4.94329
4.92096
4.90316
4.88919
4.87847
4.8705
4.86486
4.86121
4.85925
4.85876
4.85954
4.86142
4.86429
4.86804
4.8726
4.87789
4.88387
4.8905
4.89776
4.90561
4.91406
4.92307
4.93266
4.9428
4.9535
4.96475
4.97656
4.98891
5.00181
5.01521
5.02893
5.04242
5.05753
5.11798
4614.4
-549.663
-382.608
-124.232
-24.8547
8.26681
20.3082
25.9399
29.5006
32.2486
34.5459
36.493
38.1166
39.4238
40.4189
41.1083
41.5013
41.6107
41.4526
41.0454
40.4101
39.5693
38.5468
37.3669
36.0545
34.6339
33.129
31.5625
29.9561
28.3297
26.7017
25.0886
23.505
21.9634
20.4745
19.0472
17.6884
16.4033
15.1956
14.0674
13.0197
12.052
11.1632
10.3511
9.61288
8.94519
8.34423
7.80593
7.32601
6.90012
6.52389
6.19302
5.90333
5.65079
5.43161
5.2422
5.07922
4.93959
4.82048
4.71934
4.63383
4.56189
4.50165
4.4515
4.40997
4.37581
4.34794
4.32539
4.30736
4.29315
4.28218
4.27394
4.26802
4.26407
4.26179
4.26096
4.26137
4.26287
4.26533
4.26865
4.27275
4.27757
4.28304
4.28915
4.29586
4.30315
4.311
4.3194
4.32835
4.33784
4.34787
4.35844
4.36954
4.38117
4.39334
4.406
4.41901
4.43193
4.44647
4.49919
4614.39
-549.693
-382.659
-124.304
-24.946
8.15557
20.1772
25.7894
29.3309
32.0601
34.3388
36.2679
37.8737
39.1637
40.142
40.8151
41.1924
41.2867
41.1139
40.6927
40.044
39.1904
38.1557
36.9643
35.6409
34.21
32.6954
31.1198
29.5049
27.8706
26.2352
24.6153
23.0253
21.478
19.9838
18.5517
17.1884
15.8993
14.688
13.5565
12.5058
11.5356
10.6444
9.8302
9.09013
8.4208
7.81839
7.27882
6.79778
6.37092
5.99383
5.66222
5.37187
5.11878
4.8991
4.70926
4.5459
4.40594
4.28654
4.18512
4.09937
4.0272
3.96676
3.9164
3.87467
3.84032
3.81224
3.78948
3.77124
3.75681
3.74559
3.7371
3.73091
3.72667
3.72409
3.72292
3.72299
3.72411
3.72618
3.72907
3.73272
3.73707
3.74205
3.74763
3.75379
3.76051
3.76776
3.77554
3.78385
3.79267
3.80201
3.81186
3.82223
3.83311
3.84451
3.85639
3.86862
3.88088
3.89469
3.94061
4614.38
-549.721
-382.705
-124.368
-25.0285
8.05504
20.0588
25.6535
29.1777
31.8899
34.1519
36.0646
37.6546
38.929
39.8923
40.5508
40.914
40.9947
40.8089
40.3752
39.7145
38.8495
37.8038
36.6021
35.269
33.829
32.3057
30.7221
29.0996
27.4583
25.8164
24.1905
22.595
21.0425
19.5437
18.1072
16.7401
15.4475
14.233
13.0986
12.0453
11.0728
10.1795
9.3635
8.6218
7.95103
7.34735
6.80666
6.32465
5.89692
5.51909
5.18682
4.89591
4.64232
4.42222
4.23199
4.0683
3.92804
3.80838
3.70673
3.62076
3.54839
3.48775
3.43721
3.3953
3.36076
3.3325
3.30955
3.29111
3.27646
3.26503
3.25629
3.24985
3.24533
3.24245
3.24097
3.2407
3.24147
3.24314
3.24563
3.24885
3.25273
3.25722
3.26229
3.26791
3.27406
3.28072
3.28788
3.29554
3.30369
3.31233
3.32146
3.33108
3.34119
3.35179
3.36286
3.37428
3.38581
3.39878
3.43873
4614.37
-549.746
-382.746
-124.426
-25.1027
7.9647
19.9525
25.5314
29.04
31.737
33.9841
35.8822
37.4579
38.7185
39.6683
40.3138
40.6644
40.733
40.5356
40.0907
39.4194
38.5442
37.489
36.2782
34.9364
33.4882
31.9574
30.3666
28.7375
27.09
25.4424
23.8111
22.2107
20.6537
19.1508
17.7106
16.3401
15.0444
13.827
12.6902
11.6346
10.66
9.76496
8.94733
8.2042
7.53217
6.92739
6.38572
5.90285
5.47437
5.09589
4.76305
4.47164
4.21761
3.99713
3.80658
3.64259
3.50207
3.38218
3.28031
3.19415
3.1216
3.06079
3.01008
2.96801
2.9333
2.90487
2.88175
2.86311
2.84827
2.83663
2.82767
2.82098
2.8162
2.81305
2.81127
2.81067
2.81109
2.8124
2.8145
2.81729
2.82073
2.82475
2.82932
2.83441
2.84
2.84608
2.85263
2.85965
2.86713
2.87508
2.88348
2.89235
2.90169
2.91148
2.92172
2.93232
2.94307
2.95515
2.98984
4614.36
-549.768
-382.783
-124.477
-25.1689
7.88396
19.8575
25.4223
28.9171
31.6004
33.8342
35.7193
37.2824
38.5306
39.4685
40.1024
40.4419
40.4997
40.292
39.8373
39.1565
38.2724
37.2086
35.9897
34.6404
33.185
31.6475
30.0504
28.4154
26.7625
25.1099
23.4739
21.8692
20.3083
18.8018
17.3583
15.9848
14.6863
13.4666
12.3275
11.27
10.2936
9.39698
8.57793
7.83357
7.16043
6.55468
6.01216
5.52854
5.09942
4.72036
4.38702
4.09518
3.84077
3.61996
3.42911
3.26487
3.12412
3.00402
2.90197
2.81564
2.74293
2.68196
2.6311
2.58888
2.55402
2.52543
2.50214
2.48334
2.46831
2.45647
2.4473
2.44039
2.43537
2.43195
2.42989
2.42899
2.42908
2.43004
2.43176
2.43416
2.43716
2.44073
2.44482
2.4494
2.45446
2.45996
2.46592
2.47231
2.47914
2.48641
2.4941
2.50223
2.51079
2.51979
2.52921
2.53897
2.54892
2.56007
2.59015
4614.36
-549.788
-382.816
-124.523
-25.2279
7.8122
19.773
25.3253
28.8078
31.4791
33.7011
35.5747
37.1265
38.3638
39.2911
39.9148
40.2444
40.2928
40.0759
39.6125
38.9235
38.0315
36.9602
35.7342
34.3782
32.9166
31.3731
29.7706
28.1305
26.4728
24.8157
23.1757
21.5672
20.0029
18.4932
17.0468
15.6707
14.3699
13.148
12.007
10.9478
9.96982
9.07183
8.25157
7.50612
6.83202
6.22543
5.68216
5.19789
4.7682
4.38864
4.05487
3.76265
3.50791
3.2868
3.0957
2.93124
2.79029
2.67001
2.56779
2.48131
2.40845
2.34735
2.29635
2.25399
2.219
2.19026
2.16682
2.14786
2.13267
2.12064
2.11128
2.10416
2.09891
2.09525
2.09292
2.09173
2.09152
2.09215
2.09351
2.09553
2.09813
2.10126
2.10489
2.10899
2.11353
2.11849
2.12387
2.12966
2.13586
2.14246
2.14946
2.15687
2.16468
2.17289
2.1815
2.19044
2.19959
2.20981
2.23583
4614.35
-549.805
-382.845
-124.564
-25.28
7.74875
19.6984
25.2396
28.7113
31.3719
33.5835
35.4469
36.9888
38.2165
39.1345
39.7492
40.0702
40.1102
39.8854
39.4143
38.718
37.819
36.7412
35.5091
34.1472
32.6801
31.1315
29.5241
27.8795
26.2176
24.5567
22.9131
21.3014
19.734
18.2216
16.7728
15.3944
14.0915
12.8677
11.7251
10.6643
9.68504
8.78585
7.96452
7.21812
6.54319
5.93586
5.39195
4.90712
4.47692
4.09693
3.76278
3.47023
3.2152
2.99384
2.80252
2.63785
2.49673
2.37628
2.27393
2.18731
2.11432
2.05309
2.00197
1.95949
1.92437
1.89551
1.87193
1.85282
1.83748
1.82529
1.81574
1.80842
1.80296
1.79907
1.7965
1.79504
1.79454
1.79486
1.79589
1.79755
1.79977
1.8025
1.80569
1.80932
1.81337
1.81782
1.82265
1.82787
1.83346
1.83942
1.84576
1.85247
1.85955
1.86701
1.87483
1.88297
1.89131
1.90062
1.92309
4614.35
-549.821
-382.871
-124.6
-25.3258
7.69296
19.6327
25.1643
28.6264
31.2777
33.4801
35.3346
36.8678
38.0871
38.997
39.6038
39.9172
39.9499
39.7181
39.2404
38.5377
37.6327
36.5491
35.3116
33.9446
32.4727
30.9196
29.308
27.6595
25.994
24.3298
22.6831
21.0685
19.4985
17.9837
16.5327
15.1523
13.8477
12.6223
11.4782
10.4161
9.43566
8.53543
7.71317
6.96596
6.2903
5.68233
5.13786
4.65253
4.2219
3.84153
3.50705
3.21421
2.95893
2.73734
2.54583
2.38099
2.23971
2.11912
2.01664
1.9299
1.8568
1.79546
1.74423
1.70163
1.6664
1.63742
1.61372
1.59448
1.57899
1.56665
1.55694
1.54944
1.54378
1.53968
1.53688
1.53518
1.53441
1.53444
1.53516
1.53649
1.53835
1.54069
1.54348
1.54668
1.55026
1.55422
1.55854
1.56321
1.56822
1.57358
1.57928
1.58532
1.59171
1.59844
1.60551
1.61287
1.62045
1.62887
1.64823
4614.34
-549.834
-382.893
-124.631
-25.3659
7.64415
19.5753
25.0984
28.5522
31.1953
33.3897
35.2365
36.7621
37.9741
38.8768
39.4768
39.7835
39.8099
39.572
39.0885
38.3802
37.47
36.3815
35.1392
33.7678
32.2917
30.7347
29.1195
27.4676
25.799
24.1318
22.4825
20.8654
19.2932
17.7763
16.3234
14.9413
13.6351
12.4083
11.2629
10.1997
9.21827
8.31713
7.49407
6.74614
6.06986
5.46132
4.91636
4.4306
3.9996
3.6189
3.28413
2.99103
2.73553
2.51375
2.32206
2.15707
2.01565
1.89494
1.79234
1.70549
1.63229
1.57086
1.51952
1.47683
1.4415
1.41241
1.3886
1.36924
1.35362
1.34113
1.33127
1.32361
1.31778
1.31348
1.31047
1.30854
1.30752
1.30729
1.30772
1.30874
1.31027
1.31225
1.31466
1.31746
1.32061
1.32411
1.32794
1.3321
1.33657
1.34136
1.34646
1.35187
1.3576
1.36365
1.37
1.37662
1.38346
1.39103
1.40767
4614.34
-549.846
-382.913
-124.658
-25.4007
7.6017
19.5254
25.0411
28.4876
31.1237
33.3111
35.1511
36.6702
37.8757
38.7723
39.3663
39.6673
39.6882
39.445
38.9565
38.2435
37.3287
36.2359
34.9895
33.6143
32.1346
30.5742
28.9559
27.3011
25.6297
23.96
22.3084
20.6892
19.115
17.5963
16.1417
14.7582
13.4506
12.2226
11.0761
10.0119
9.0296
8.12768
7.30392
6.55536
5.87853
5.26951
4.72412
4.23799
3.80665
3.42566
3.09064
2.79732
2.54162
2.31967
2.12783
1.9627
1.82116
1.70035
1.59764
1.5107
1.4374
1.37588
1.32446
1.28168
1.24625
1.21706
1.19315
1.17368
1.15794
1.14533
1.13534
1.12752
1.12153
1.11705
1.11385
1.11171
1.11047
1.10999
1.11016
1.11089
1.11211
1.11377
1.11583
1.11825
1.121
1.12407
1.12745
1.13113
1.1351
1.13936
1.1439
1.14872
1.15383
1.15923
1.16491
1.17084
1.17697
1.18373
1.19801
4614.33
-549.856
-382.93
-124.682
-25.4309
7.56496
19.4822
24.9915
28.4318
31.0617
33.2432
35.0773
36.5907
37.7907
38.682
39.2708
39.5669
39.5831
39.3353
38.8424
38.1253
37.2066
36.11
34.8602
33.4817
31.9989
30.4356
28.8145
27.1572
25.4835
23.8116
22.1579
20.5369
18.961
17.4408
15.9848
14.5999
13.2912
12.0622
10.9147
9.8497
8.8666
7.96399
7.13961
6.39052
5.7132
5.10376
4.55799
4.07153
3.6399
3.25866
2.92341
2.6299
2.37403
2.15192
1.95995
1.7947
1.65305
1.53214
1.42934
1.34231
1.26894
1.20733
1.15583
1.11297
1.07746
1.04819
1.02418
1.00461
0.988769
0.976042
0.965921
0.95797
0.951828
0.947193
0.943814
0.941485
0.940037
0.939332
0.93926
0.939731
0.940674
0.942034
0.943767
0.945839
0.948225
0.950907
0.95387
0.957105
0.960606
0.964368
0.968388
0.972667
0.977204
0.981998
0.987046
0.992324
0.99779
1.00381
1.01602
4614.33
-549.865
-382.944
-124.702
-25.4569
7.53336
19.445
24.9488
28.3837
31.0084
33.1847
35.0138
36.5223
37.7176
38.6043
39.1888
39.4806
39.4927
39.241
38.7444
38.0237
37.1016
36.0019
34.749
33.3677
31.8822
30.3164
28.693
27.0335
25.3578
23.684
22.0286
20.406
18.8287
17.3071
15.8499
14.4639
13.1542
11.9242
10.776
9.71017
8.72639
7.82319
6.99828
6.24871
5.57097
4.96115
4.41505
3.9283
3.49641
3.11494
2.7795
2.48581
2.22978
2.00754
1.81545
1.65009
1.50835
1.38734
1.28447
1.19736
1.12391
1.06223
1.01066
0.967728
0.932143
0.902791
0.878703
0.859045
0.843106
0.830276
0.820041
0.811968
0.805693
0.800912
0.797375
0.794874
0.793238
0.792331
0.792039
0.792273
0.79296
0.794046
0.795484
0.797241
0.79929
0.801612
0.804193
0.807022
0.810093
0.8134
0.816941
0.820715
0.824721
0.828958
0.833423
0.838098
0.842947
0.848273
0.858698
4614.33
-549.872
-382.957
-124.719
-25.4791
7.50633
19.4132
24.9123
28.3426
30.9628
33.1347
34.9595
36.4639
37.6552
38.5379
39.1186
39.4068
39.4154
39.1604
38.6606
37.9369
37.0119
35.9095
34.654
33.2702
31.7825
30.2146
28.5892
26.9278
25.2503
23.575
21.9181
20.2941
18.7155
17.1927
15.7345
14.3475
13.0369
11.8061
10.6572
9.59071
8.60635
7.70262
6.87724
6.12725
5.44914
4.83899
4.2926
3.80558
3.37347
2.9918
2.65617
2.36232
2.10616
1.8838
1.69159
1.52614
1.38431
1.26322
1.16027
1.0731
0.999579
0.937838
0.886202
0.8432
0.807548
0.778125
0.753962
0.734225
0.7182
0.705277
0.694941
0.686758
0.680362
0.675451
0.67177
0.669114
0.66731
0.666219
0.665729
0.665748
0.666205
0.667041
0.668212
0.669682
0.671425
0.67342
0.675653
0.678112
0.68079
0.683682
0.686784
0.690095
0.693614
0.697341
0.701271
0.705391
0.70967
0.714359
0.723234
4614.33
-549.878
-382.967
-124.734
-25.4979
7.48336
19.3862
24.8813
28.3077
30.924
33.0922
34.9134
36.4142
37.6021
38.4815
39.059
39.3441
39.3497
39.092
38.5894
37.8632
36.9357
35.8309
34.5733
33.1874
31.6977
30.128
28.5009
26.8379
25.1589
23.4822
21.824
20.1988
18.6191
17.0954
15.6362
14.2484
12.937
11.7055
10.5559
9.48893
8.50405
7.59985
6.77406
6.02369
5.34525
4.7348
4.18815
3.70089
3.26858
2.88672
2.55094
2.25694
2.00066
1.77818
1.58587
1.42033
1.27842
1.15726
1.05424
0.967001
0.893424
0.831623
0.779928
0.736867
0.701154
0.671667
0.647437
0.627628
0.611525
0.598518
0.588092
0.57981
0.573307
0.568278
0.56447
0.561674
0.559718
0.558463
0.557795
0.557621
0.55787
0.558482
0.559411
0.560623
0.562089
0.563788
0.565706
0.567829
0.570152
0.572666
0.57537
0.57826
0.581337
0.584597
0.58804
0.591652
0.595411
0.599518
0.607054
4614.32
-549.884
-382.976
-124.746
-25.5139
7.46397
19.3634
24.8552
28.2783
30.8914
33.0564
34.8745
36.3723
37.5573
38.4339
39.0087
39.2912
39.2943
39.0342
38.5294
37.8009
36.8714
35.7646
34.5051
33.1175
31.6262
30.0548
28.4263
26.7619
25.0817
23.4037
21.7445
20.1183
18.5376
17.013
15.553
14.1645
12.8524
11.6203
10.4702
9.40263
8.41729
7.51268
6.68651
5.93581
5.25706
4.64635
4.09945
3.61199
3.17948
2.79746
2.46152
2.1674
1.91099
1.68841
1.49601
1.33039
1.1884
1.06717
0.964088
0.876789
0.803155
0.741299
0.689549
0.646434
0.610666
0.581121
0.55683
0.536957
0.520784
0.507703
0.497196
0.488826
0.482227
0.477093
0.473171
0.470251
0.46816
0.466758
0.46593
0.465584
0.465646
0.466057
0.466771
0.46775
0.468967
0.470401
0.472035
0.473856
0.475858
0.478032
0.480376
0.482886
0.485562
0.488401
0.491402
0.494554
0.497838
0.50142
0.507801
4614.32
-549.888
-382.983
-124.757
-25.5272
7.44772
19.3443
24.8333
28.2536
30.864
33.0264
34.8419
36.3372
37.5198
38.3941
38.9666
39.2469
39.2479
38.9858
38.479
37.7487
36.8175
35.7091
34.448
33.0589
31.5661
29.9935
28.3636
26.6981
25.0168
23.3378
21.6776
20.0505
18.469
16.9436
15.4829
14.0938
12.7811
11.5485
10.3978
9.32984
8.34409
7.4391
6.61259
5.86158
5.18256
4.5716
4.02449
3.53682
3.10414
2.72196
2.38588
2.09163
1.83511
1.61244
1.41995
1.25424
1.11218
0.990891
0.887747
0.800392
0.726705
0.664798
0.612998
0.569833
0.534013
0.504416
0.480071
0.460139
0.443905
0.430757
0.420177
0.411728
0.405044
0.399817
0.395794
0.392764
0.390553
0.38902
0.38805
0.387551
0.387447
0.387679
0.388199
0.388972
0.389967
0.391163
0.392543
0.394094
0.395808
0.397677
0.399698
0.401867
0.404183
0.406643
0.409247
0.411984
0.41484
0.417948
0.423337
4614.32
-549.892
-382.99
-124.766
-25.5383
7.43422
19.3284
24.815
28.2331
30.8412
33.0014
34.8148
36.3081
37.4886
38.3609
38.9316
39.2101
39.2094
38.9455
38.4372
37.7054
36.7727
35.6629
34.4004
33.0101
31.5161
29.9423
28.3115
26.6449
24.9627
23.2828
21.6218
19.9939
18.4117
16.8856
15.4243
14.0346
12.7214
11.4883
10.3372
9.26879
8.28266
7.37733
6.55051
5.79922
5.11994
4.50874
3.96142
3.47357
3.04072
2.65839
2.32217
2.02781
1.77118
1.54841
1.35583
1.19005
1.04792
0.926567
0.823366
0.735957
0.662219
0.600264
0.548417
0.505206
0.469339
0.439694
0.415299
0.395315
0.379025
0.365817
0.355173
0.346655
0.339894
0.334585
0.330472
0.327344
0.325027
0.323379
0.322284
0.321648
0.321397
0.32147
0.32182
0.322408
0.323206
0.324191
0.325345
0.326656
0.328114
0.329711
0.331444
0.333308
0.335302
0.337424
0.339672
0.342038
0.34451
0.347195
0.351733
4614.32
-549.895
-382.995
-124.773
-25.5474
7.42309
19.3153
24.8
28.2162
30.8225
32.9809
34.7925
36.2841
37.4629
38.3337
38.9028
39.1798
39.1777
38.9124
38.4028
37.6697
36.7357
35.6248
34.3613
32.9698
31.4749
29.9002
28.2684
26.601
24.9179
23.2373
21.5755
19.947
18.3642
16.8375
15.3757
13.9854
12.6718
11.4382
10.2867
9.21789
8.23141
7.32576
6.49865
5.74709
5.06757
4.45616
3.90863
3.4206
2.98759
2.60511
2.26877
1.97428
1.71755
1.49469
1.30203
1.13617
0.993971
0.872552
0.769294
0.681832
0.608046
0.546044
0.494153
0.450897
0.414987
0.385298
0.360857
0.340825
0.324485
0.311224
0.300523
0.291942
0.285115
0.279733
0.275541
0.272327
0.269916
0.268166
0.26696
0.266205
0.265824
0.265757
0.265956
0.266382
0.267006
0.267804
0.268758
0.269856
0.271087
0.272444
0.273921
0.275515
0.277224
0.279044
0.280976
0.283011
0.285141
0.287451
0.291261
4614.32
-549.898
-382.999
-124.779
-25.5549
7.41402
19.3046
24.7878
28.2024
30.8072
32.9642
34.7744
36.2645
37.4421
38.3115
38.8793
39.1551
39.1518
38.8855
38.3747
37.6406
36.7057
35.5938
34.3293
32.937
31.4412
29.8657
28.2332
26.5651
24.8813
23.2
21.5376
19.9085
18.3251
16.7979
15.3356
13.9449
12.6308
11.3968
10.2449
9.17576
8.18895
7.283
6.45561
5.7038
5.02404
4.41241
3.86469
3.37648
2.94331
2.56069
2.22421
1.92961
1.67277
1.44981
1.25707
1.09113
0.948866
0.827385
0.72407
0.636556
0.562721
0.500673
0.448739
0.405442
0.36949
0.33976
0.315277
0.295202
0.278817
0.265508
0.254755
0.24612
0.239233
0.233787
0.229525
0.226235
0.223742
0.221903
0.2206
0.21974
0.219245
0.219056
0.219122
0.219405
0.219875
0.220509
0.221288
0.222198
0.22323
0.224374
0.225626
0.226981
0.228438
0.229993
0.231644
0.233387
0.235213
0.237191
0.240382
4614.32
-549.9
-383.002
-124.783
-25.5609
7.40671
19.2961
24.778
28.1913
30.7949
32.9507
34.7598
36.2488
37.4253
38.2937
38.8605
39.1354
39.1311
38.8638
38.3523
37.6173
36.6815
35.5688
34.3036
32.9106
31.4141
29.8379
28.2048
26.536
24.8517
23.1698
21.5069
19.8772
18.2933
16.7657
15.3029
13.9117
12.5972
11.3629
10.2106
9.14116
8.15404
7.2478
6.42014
5.66807
4.98808
4.37624
3.82833
3.33994
2.90661
2.52384
2.18723
1.89251
1.63556
1.41251
1.21967
1.05366
0.911324
0.789778
0.686406
0.598839
0.524955
0.462863
0.410886
0.367548
0.331557
0.301788
0.277266
0.257151
0.240724
0.227372
0.216574
0.20789
0.200951
0.195448
0.191125
0.187768
0.185203
0.183286
0.181898
0.180946
0.180352
0.180055
0.180006
0.180164
0.180501
0.180991
0.181616
0.182362
0.183218
0.184176
0.185231
0.186377
0.187611
0.188933
0.190339
0.191824
0.193383
0.19507
0.197733
4614.32
-549.901
-383.005
-124.787
-25.5657
7.40089
19.2892
24.7701
28.1825
30.7852
32.94
34.7482
36.2364
37.412
38.2796
38.8457
39.1197
39.1148
38.8468
38.3345
37.5989
36.6625
35.5491
34.2834
32.8897
31.3927
29.8159
28.1822
26.5129
24.8281
23.1457
21.4823
19.8522
18.2678
16.7398
15.2766
13.885
12.5701
11.3354
10.1828
9.11303
8.12561
7.21908
6.39114
5.63883
4.95861
4.34656
3.79844
3.30988
2.87637
2.49345
2.15671
1.86186
1.60481
1.38165
1.18873
1.02263
0.88022
0.758608
0.655176
0.567555
0.493621
0.431483
0.379464
0.336086
0.300056
0.27025
0.245691
0.225539
0.209074
0.195683
0.184843
0.176116
0.16913
0.163578
0.159201
0.155786
0.153158
0.151173
0.149712
0.14868
0.147999
0.147609
0.147458
0.147509
0.147728
0.148093
0.148585
0.149188
0.149891
0.150687
0.151569
0.152532
0.153573
0.15469
0.155881
0.157142
0.158466
0.159898
0.162115
4614.32
-549.902
-383.007
-124.79
-25.5694
7.39632
19.2839
24.764
28.1757
30.7776
32.9317
34.7393
36.2268
37.4018
38.2687
38.8342
39.1077
39.1022
38.8336
38.3208
37.5847
36.6478
35.534
34.2677
32.8736
31.3761
29.7989
28.1647
26.495
24.8097
23.1269
21.4631
19.8325
18.2478
16.7193
15.2557
13.8638
12.5485
11.3135
10.1605
9.09043
8.1027
7.19589
6.36769
5.61512
4.93467
4.32239
3.77408
3.28532
2.85165
2.46857
2.13168
1.83671
1.57953
1.35627
1.16325
0.997066
0.854576
0.732895
0.629399
0.541722
0.467737
0.405552
0.353489
0.310071
0.274003
0.24416
0.219566
0.199379
0.182879
0.169452
0.158575
0.149809
0.142782
0.137186
0.132762
0.129296
0.126613
0.124569
0.123043
0.121942
0.121187
0.120716
0.120478
0.120434
0.120553
0.120809
0.121185
0.121663
0.122234
0.122889
0.123621
0.124426
0.125299
0.126238
0.127242
0.128307
0.129427
0.130637
0.132477
4614.32
-549.903
-383.009
-124.792
-25.5724
7.3928
19.2797
24.7593
28.1704
30.7718
32.9254
34.7324
36.2195
37.394
38.2605
38.8256
39.0986
39.0927
38.8238
38.3106
37.5741
36.6368
35.5226
34.256
32.8615
31.3636
29.7861
28.1515
26.4814
24.7957
23.1126
21.4484
19.8174
18.2323
16.7035
15.2395
13.8472
12.5316
11.2962
10.143
9.07256
8.08453
7.17742
6.34895
5.59612
4.91543
4.30292
3.7544
3.26545
2.83159
2.44835
2.11131
1.81619
1.55889
1.33551
1.14239
0.976119
0.833546
0.711791
0.608228
0.52049
0.446452
0.384218
0.33211
0.288651
0.252545
0.222666
0.198037
0.177817
0.161284
0.147823
0.136913
0.128111
0.121047
0.115412
0.110947
0.107437
0.104706
0.10261
0.10103
0.0998685
0.0990487
0.0985074
0.0981944
0.0980696
0.0981012
0.0982642
0.0985391
0.0989109
0.0993677
0.0999007
0.100503
0.10117
0.101898
0.102684
0.103526
0.104421
0.105364
0.106383
0.107905
4614.32
-549.904
-383.01
-124.794
-25.5746
7.39012
19.2766
24.7558
28.1665
30.7674
32.9207
34.7274
36.2141
37.3883
38.2546
38.8193
39.0921
39.0859
38.8168
38.3033
37.5665
36.629
35.5146
34.2477
32.8529
31.3548
29.7769
28.142
26.4716
24.7856
23.1021
21.4376
19.8063
18.2209
16.6917
15.2274
13.8347
12.5188
11.283
10.1295
9.05873
8.07039
7.16299
6.33423
5.58114
4.90019
4.28745
3.7387
3.24954
2.81549
2.43207
2.09487
1.7996
1.54217
1.31867
1.12544
0.959063
0.816401
0.694566
0.590932
0.50313
0.429033
0.366748
0.314593
0.271091
0.234947
0.205032
0.180369
0.160116
0.143551
0.130059
0.119117
0.110283
0.103187
0.0975168
0.0930148
0.0894663
0.0866944
0.0845536
0.0829251
0.0817123
0.0808368
0.0802355
0.0798578
0.0796633
0.0796201
0.0797028
0.0798917
0.0801714
0.0805299
0.0809583
0.0814495
0.0819984
0.0826012
0.083255
0.0839575
0.084706
0.0854965
0.0863504
0.0876062
4614.32
-549.905
-383.011
-124.795
-25.5762
7.38812
19.2743
24.7531
28.1636
30.7643
32.9173
34.7238
36.2103
37.3844
38.2504
38.815
39.0877
39.0814
38.8121
38.2985
37.5616
36.6239
35.5093
34.2422
32.8473
31.3489
29.7708
28.1357
26.4651
24.7788
23.095
21.4302
19.7986
18.2128
16.6833
15.2186
13.8257
12.5094
11.2733
10.1194
9.04835
8.05969
7.15199
6.32293
5.56956
4.88834
4.27535
3.72636
3.23698
2.80273
2.41912
2.08175
1.78632
1.52874
1.30511
1.11176
0.945276
0.802518
0.680596
0.576884
0.489013
0.414855
0.352514
0.30031
0.256764
0.220579
0.190627
0.165929
0.145644
0.129049
0.115527
0.104555
0.0956921
0.0885656
0.0828647
0.0783304
0.0747478
0.0719397
0.0697603
0.0680904
0.0668332
0.0659098
0.0652571
0.064824
0.0645699
0.0644627
0.0644767
0.064592
0.0647929
0.0650675
0.0654062
0.0658022
0.06625
0.0667456
0.0672862
0.0678692
0.0684921
0.0691517
0.0698643
0.0708969
4614.32
-549.905
-383.012
-124.796
-25.5775
7.38661
19.2726
24.7512
28.1615
30.762
32.915
34.7213
36.2078
37.3818
38.2478
38.8124
39.085
39.0787
38.8093
38.2957
37.5588
36.6211
35.5064
34.2392
32.8442
31.3457
29.7674
28.1322
26.4613
24.7748
23.0908
21.4256
19.7938
18.2077
16.6779
15.2129
13.8196
12.503
11.2666
10.1123
9.04092
8.05194
7.14391
6.31455
5.56088
4.87938
4.26613
3.71689
3.22727
2.7928
2.40898
2.07142
1.77582
1.51808
1.29431
1.10082
0.934227
0.791364
0.669348
0.565553
0.477607
0.403382
0.340982
0.288726
0.245132
0.208904
0.178914
0.154181
0.133864
0.117238
0.103687
0.0926876
0.0837968
0.0766427
0.0709138
0.0663507
0.062738
0.0598983
0.0576853
0.0559797
0.0546842
0.0537199
0.0530231
0.0525427
0.0522379
0.052076
0.0520315
0.0520842
0.0522181
0.052421
0.0526835
0.0529983
0.0533599
0.0537642
0.0542081
0.0546892
0.0552051
0.0557527
0.0563449
0.0571912
4614.32
-549.906
-383.012
-124.797
-25.5785
7.38546
19.2713
24.7498
28.16
30.7605
32.9134
34.7197
36.2062
37.3802
38.2463
38.8109
39.0837
39.0774
38.8082
38.2946
37.5577
36.6201
35.5054
34.2382
32.8432
31.3446
29.7663
28.1309
26.4599
24.7732
23.089
21.4236
19.7915
18.2051
16.675
15.2097
13.8161
12.4991
11.2624
10.1078
9.03603
8.04671
7.13835
6.30867
5.55468
4.87288
4.25934
3.70983
3.21996
2.78525
2.40121
2.06344
1.76766
1.50975
1.28582
1.09219
0.925469
0.782491
0.660372
0.556486
0.468459
0.394162
0.331698
0.279384
0.23574
0.199468
0.169437
0.144668
0.124317
0.107661
0.0940817
0.0830551
0.0741382
0.0669585
0.0612039
0.0566148
0.0529754
0.0501078
0.0478657
0.0461292
0.0448008
0.0438014
0.043067
0.0425463
0.0421982
0.04199
0.0418959
0.0418953
0.0419724
0.0421146
0.0423124
0.0425583
0.0428468
0.0431736
0.0435355
0.04393
0.0443549
0.0448074
0.0452973
0.0459888
4614.32
-549.906
-383.013
-124.798
-25.5793
7.38452
19.2702
24.7487
28.1588
30.7594
32.9123
34.7187
36.2053
37.3794
38.2457
38.8105
39.0834
39.0773
38.8082
38.2949
37.5581
36.6206
35.506
34.239
32.844
31.3454
29.767
28.1316
26.4605
24.7737
23.0893
21.4237
19.7914
18.2047
16.6743
15.2087
13.8148
12.4975
11.2604
10.1054
9.03332
8.04364
7.13494
6.30491
5.55059
4.86847
4.25462
3.70482
3.21468
2.77971
2.39544
2.05745
1.76146
1.50337
1.27926
1.08549
0.918622
0.77552
0.653289
0.549303
0.461187
0.386812
0.324278
0.271903
0.228205
0.191884
0.161811
0.137004
0.116619
0.0999314
0.0863236
0.0752704
0.0663283
0.0591243
0.053346
0.0487331
0.0450697
0.0421775
0.0399098
0.0381465
0.0367898
0.0357603
0.0349938
0.0344389
0.0340541
0.0338067
0.0336705
0.033625
0.033654
0.0337449
0.033888
0.0340758
0.0343025
0.0345638
0.0348564
0.0351778
0.0355257
0.0358977
0.0363012
0.0368644
4614.32
-549.906
-383.013
-124.798
-25.5801
7.38364
19.2693
24.7477
28.1579
30.7584
32.9115
34.718
36.2048
37.3791
38.2456
38.8107
39.0838
39.078
38.8092
38.2961
37.5596
36.6223
35.508
34.2411
32.8462
31.3477
29.7694
28.134
26.4629
24.776
23.0914
21.4257
19.7931
18.2063
16.6756
15.2097
13.8154
12.4978
11.2603
10.105
9.0325
8.04245
7.13338
6.30299
5.54832
4.86586
4.25168
3.70157
3.21113
2.77589
2.39136
2.05313
1.75692
1.49862
1.27433
1.08039
0.913371
0.770132
0.64778
0.543685
0.455472
0.381011
0.318402
0.265961
0.222204
0.185831
0.155712
0.130865
0.110444
0.0937244
0.0800875
0.0690076
0.0600408
0.0528134
0.0470127
0.0423779
0.0386927
0.0357785
0.0334882
0.0317015
0.0303203
0.029265
0.0284712
0.0278871
0.0274713
0.0271907
0.0270191
0.0269357
0.0269242
0.026972
0.0270691
0.027208
0.0273827
0.0275889
0.0278232
0.028083
0.0283661
0.0286703
0.0290011
0.0294582
4614.32
-549.906
-383.014
-124.799
-25.5809
7.3827
19.2683
24.7467
28.1569
30.7575
32.9107
34.7175
36.2044
37.3791
38.2458
38.8112
39.0848
39.0793
38.8109
38.2981
37.562
36.625
35.511
34.2443
32.8497
31.3514
29.7732
28.1378
26.4667
24.7797
23.0952
21.4293
19.7965
18.2094
16.6785
15.2123
13.8177
12.4997
11.2619
10.1062
9.03333
8.0429
7.13343
6.30266
5.54762
4.86479
4.25027
3.69982
3.20907
2.77352
2.38871
2.05022
1.75377
1.49525
1.27076
1.07663
0.909453
0.766065
0.643579
0.539365
0.451047
0.376493
0.313801
0.261287
0.217466
0.181038
0.15087
0.12598
0.105521
0.0887679
0.075101
0.0639941
0.0550026
0.0477524
0.0419301
0.0372747
0.0335694
0.0306352
0.0283248
0.0265176
0.0251151
0.0240376
0.0232204
0.0226116
0.0221695
0.0218609
0.0216594
0.0215442
0.0214988
0.0215104
0.021569
0.0216668
0.021798
0.021958
0.0221434
0.0223516
0.0225804
0.0228278
0.0230977
0.0234674
4614.32
-549.907
-383.014
-124.8
-25.5819
7.38155
19.2671
24.7455
28.1557
30.7565
32.9098
34.7168
36.204
37.379
38.2461
38.8119
39.0859
39.0809
38.8129
38.3007
37.5649
36.6284
35.5147
34.2484
32.8541
31.356
29.778
28.1428
26.4718
24.7849
23.1002
21.4343
19.8014
18.2141
16.6829
15.2164
13.8215
12.5031
11.2649
10.1089
9.03561
8.04477
7.1349
6.30372
5.54828
4.86507
4.25017
3.69936
3.20827
2.7724
2.38729
2.04852
1.75181
1.49305
1.26834
1.07401
0.906648
0.763098
0.640467
0.536123
0.447689
0.373033
0.310252
0.257659
0.213769
0.177281
0.14706
0.122123
0.101624
0.0848356
0.0711373
0.0600026
0.050986
0.043713
0.0378698
0.0331946
0.0294705
0.026518
0.0241894
0.0223639
0.0209429
0.0198461
0.0190089
0.018379
0.0179147
0.0175825
0.0173559
0.017214
0.0171402
0.0171216
0.0171479
0.0172116
0.0173064
0.0174279
0.0175725
0.0177377
0.0179211
0.018121
0.0183401
0.0186381
4614.32
-549.907
-383.015
-124.801
-25.5832
7.38007
19.2655
24.7438
28.1541
30.755
32.9085
34.7157
36.2033
37.3786
38.2462
38.8125
39.087
39.0825
38.8151
38.3034
37.5682
36.6322
35.519
34.2532
32.8592
31.3615
29.7838
28.1488
26.4779
24.7911
23.1065
21.4404
19.8074
18.22
16.6885
15.2218
13.8266
12.5079
11.2693
10.1128
9.03918
8.04791
7.13761
6.30601
5.55015
4.86652
4.25122
3.70003
3.20857
2.77235
2.38692
2.04784
1.75085
1.49183
1.26688
1.07234
0.904779
0.761052
0.638261
0.533776
0.445217
0.37045
0.30757
0.254892
0.210927
0.174373
0.144095
0.119108
0.0985659
0.0817396
0.0680084
0.0568446
0.0478024
0.0405063
0.0346422
0.0299479
0.0262058
0.0232361
0.0208909
0.019049
0.0176115
0.0164979
0.0156434
0.0149955
0.0145124
0.0141603
0.0139127
0.0137485
0.0136509
0.013607
0.0136066
0.0136418
0.0137064
0.0137959
0.0139066
0.0140359
0.0141817
0.014342
0.0145189
0.0147583
4614.32
-549.908
-383.016
-124.802
-25.5849
7.37813
19.2634
24.7416
28.1519
30.7529
32.9065
34.714
36.202
37.3778
38.2459
38.8127
39.0878
39.084
38.8172
38.3062
37.5716
36.6362
35.5237
34.2584
32.8649
31.3677
29.7903
28.1556
26.4849
24.7982
23.1137
21.4477
19.8146
18.227
16.6954
15.2284
13.8328
12.5138
11.2749
10.118
9.0439
8.05219
7.14144
6.30939
5.55308
4.86902
4.25329
3.70169
3.20983
2.77325
2.38746
2.04805
1.75076
1.49145
1.26625
1.07147
0.903697
0.759778
0.636815
0.532175
0.443479
0.368591
0.305605
0.252833
0.208786
0.172161
0.141821
0.116781
0.0961919
0.0793253
0.065559
0.0543647
0.0452957
0.037976
0.0320908
0.0273774
0.0236179
0.0206319
0.0182713
0.0164144
0.0149621
0.0138337
0.0129642
0.0123009
0.0118016
0.0114328
0.0111675
0.0109846
0.0108673
0.0108024
0.0107797
0.0107913
0.0108309
0.0108938
0.0109764
0.0110761
0.0111907
0.0113183
0.0114603
0.0116518
4614.32
-549.909
-383.018
-124.804
-25.5872
7.37558
19.2606
24.7387
28.1489
30.7499
32.9038
34.7116
36.1999
37.3761
38.2448
38.8123
39.088
39.085
38.819
38.3087
37.5749
36.6403
35.5284
34.2638
32.8709
31.3742
29.7974
28.163
26.4927
24.8062
23.1218
21.4558
19.8227
18.235
16.7032
15.236
13.8402
12.5208
11.2815
10.1242
9.04966
8.0575
7.14629
6.31376
5.55698
4.87245
4.25627
3.70423
3.21195
2.77496
2.3888
2.04904
1.75141
1.49181
1.26632
1.07129
0.903285
0.759156
0.636005
0.531198
0.442353
0.367333
0.304231
0.251357
0.207222
0.170519
0.140112
0.115014
0.0943752
0.0774653
0.0636616
0.0524349
0.0433378
0.0359936
0.0300869
0.0253543
0.0215775
0.0185758
0.0162004
0.0143296
0.0128639
0.0117223
0.0108396
0.0101629
0.00964994
0.00926684
0.0089867
0.00878815
0.00865435
0.00857207
0.00853095
0.00852295
0.00854185
0.00858288
0.00864238
0.00871761
0.00880642
0.0089071
0.00902032
0.00917294
4614.32
-549.91
-383.019
-124.806
-25.59
7.3723
19.2569
24.7348
28.1449
30.746
32.9
34.7081
36.1968
37.3735
38.2428
38.811
39.0875
39.0853
38.8201
38.3107
37.5779
36.6441
35.5331
34.2692
32.8771
31.3811
29.8048
28.1709
26.501
24.8148
23.1306
21.4648
19.8317
18.2439
16.712
15.2446
13.8485
12.5288
11.2891
10.1314
9.05639
8.06376
7.15205
6.31903
5.56176
4.87674
4.26007
3.70756
3.21484
2.77742
2.39085
2.05071
1.75273
1.4928
1.26701
1.0717
0.903445
0.75909
0.635736
0.530747
0.44174
0.366577
0.303349
0.250365
0.206133
0.169346
0.138866
0.113705
0.0930122
0.0760556
0.0622119
0.0509507
0.0418239
0.034454
0.0285249
0.0237728
0.0199786
0.0169613
0.0145718
0.0126878
0.0112096
0.0100561
0.00916166
0.00847327
0.00794845
0.00755321
0.00726051
0.00704886
0.00690133
0.00680459
0.00674822
0.0067241
0.00672595
0.00674895
0.00678941
0.00684454
0.0069122
0.00699071
0.00708033
0.00720143
4614.32
-549.911
-383.021
-124.809
-25.5936
7.36813
19.2523
24.7299
28.1398
30.7408
32.8949
34.7033
36.1924
37.3697
38.2396
38.8086
39.086
39.0846
38.8205
38.3121
37.5802
36.6474
35.5374
34.2745
32.8832
31.388
29.8124
28.1792
26.5097
24.824
23.1401
21.4744
19.8414
18.2537
16.7216
15.254
13.8577
12.5377
11.2976
10.1394
9.06401
8.07089
7.15868
6.32514
5.56734
4.8818
4.26463
3.71163
3.21842
2.78055
2.39354
2.05299
1.75463
1.49435
1.26823
1.07263
0.904101
0.759501
0.635927
0.530741
0.441559
0.366241
0.302876
0.249772
0.205435
0.168558
0.137999
0.11277
0.0920186
0.0750118
0.0611249
0.0498269
0.0406685
0.0332715
0.027319
0.0225466
0.0187347
0.0157018
0.0132984
0.0114017
0.00991182
0.00874728
0.00784219
0.00714342
0.00660827
0.00620261
0.00589923
0.00567657
0.00551757
0.00540883
0.00533984
0.00530244
0.00529028
0.00529848
0.00532333
0.005362
0.00541235
0.00547271
0.00554302
0.00563866
4614.32
-549.913
-383.024
-124.813
-25.598
7.36294
19.2465
24.7236
28.1333
30.7342
32.8884
34.6969
36.1864
37.3643
38.235
38.8047
39.0831
39.0828
38.8198
38.3125
37.5818
36.6502
35.5412
34.2794
32.8891
31.3948
29.8201
28.1876
26.5188
24.8335
23.15
21.4846
19.8518
18.2641
16.732
15.2643
13.8677
12.5474
11.3069
10.1484
9.07247
8.07885
7.16612
6.33204
5.57369
4.88761
4.26989
3.71636
3.22265
2.78429
2.39682
2.05584
1.75707
1.4964
1.26994
1.07401
0.905193
0.760328
0.636516
0.531118
0.441746
0.36626
0.302748
0.249514
0.205064
0.168088
0.137444
0.112141
0.0913263
0.0742653
0.0603321
0.0489945
0.0398023
0.0323764
0.0263993
0.0216058
0.0177757
0.0147269
0.0123095
0.0104004
0.00889923
0.00772431
0.00680947
0.00610135
0.00555708
0.00514236
0.00482985
0.00459786
0.00442925
0.00431053
0.00423111
0.00418276
0.0041591
0.00415519
0.00416727
0.0041925
0.00422871
0.00427427
0.00432885
0.004404
4614.31
-549.915
-383.027
-124.817
-25.6035
7.35659
19.2394
24.7159
28.1252
30.7259
32.88
34.6888
36.1787
37.3572
38.2286
38.7993
39.0787
39.0796
38.8177
38.3117
37.5823
36.652
35.5444
34.2838
32.8947
31.4014
29.8277
28.196
26.528
24.8433
23.1603
21.4953
19.8628
18.2752
16.7431
15.2752
13.8785
12.5579
11.3171
10.1581
9.08172
8.08759
7.17432
6.33968
5.58077
4.89411
4.27582
3.72174
3.22748
2.7886
2.40064
2.05919
1.75998
1.49891
1.27207
1.0758
0.906672
0.761523
0.637455
0.531827
0.442251
0.366583
0.302911
0.249537
0.204964
0.167882
0.137146
0.111764
0.0908805
0.0737609
0.0597778
0.0483977
0.0391693
0.0317128
0.0257095
0.0208938
0.0170447
0.0139795
0.0115479
0.00962644
0.00811426
0.00692938
0.0060054
0.0052887
0.00473624
0.00431354
0.00399313
0.0037532
0.00357649
0.00344943
0.00336137
0.003304
0.0032709
0.00325708
0.00325875
0.00327303
0.00329775
0.00333127
0.00337309
0.00343179
4614.31
-549.917
-383.031
-124.823
-25.61
7.34893
19.2308
24.7065
28.1152
30.7156
32.8698
34.6787
36.169
37.3481
38.2203
38.792
39.0725
39.0746
38.8141
38.3096
37.5816
36.6528
35.5466
34.2874
32.8996
31.4076
29.835
28.2044
26.5372
24.8533
23.1709
21.5064
19.8742
18.2868
16.7548
15.2869
13.8899
12.5691
11.328
10.1686
9.09174
8.09709
7.18326
6.34804
5.58853
4.90127
4.28239
3.72772
3.23289
2.79346
2.40497
2.06303
1.76336
1.50185
1.27461
1.07797
0.908502
0.763048
0.638704
0.532829
0.443033
0.36717
0.303325
0.2498
0.205095
0.167898
0.137062
0.111594
0.0906371
0.0734545
0.0594176
0.0479918
0.0387247
0.0312353
0.0252043
0.020365
0.0164959
0.0134138
0.0109676
0.00903359
0.00751042
0.00631583
0.0053831
0.00465839
0.00409845
0.00366861
0.00334127
0.00309447
0.00291088
0.00277682
0.00268157
0.00261677
0.00257591
0.002554
0.00254718
0.00255256
0.00256796
0.00259173
0.00262322
0.00266876
4614.31
-549.92
-383.036
-124.829
-25.6177
7.33981
19.2205
24.6953
28.1033
30.7033
32.8573
34.6663
36.157
37.3366
38.2097
38.7824
39.0642
39.0677
38.8087
38.3058
37.5795
36.6523
35.5477
34.2901
32.9039
31.4133
29.842
28.2125
26.5464
24.8634
23.1818
21.5178
19.886
18.2989
16.767
15.2991
13.9021
12.581
11.3396
10.1798
9.10248
8.1073
7.19291
6.35709
5.59697
4.90908
4.28957
3.73428
3.23885
2.79884
2.4098
2.06732
1.76716
1.50519
1.27752
1.08048
0.910655
0.764873
0.640234
0.534093
0.444061
0.367988
0.303957
0.250269
0.205422
0.168101
0.137158
0.111598
0.0905612
0.0733108
0.0592161
0.0477411
0.0384324
0.0309079
0.0248473
0.019983
0.0160928
0.0129929
0.0105316
0.00858468
0.00705041
0.00584617
0.00490492
0.00417258
0.00360565
0.00316931
0.00283578
0.002583
0.00239349
0.0022535
0.00215224
0.00208127
0.00203405
0.00200551
0.00199179
0.00198995
0.00199779
0.00201369
0.00203686
0.0020719
4614.31
-549.923
-383.041
-124.836
-25.6268
7.32909
19.2084
24.6821
28.0892
30.6886
32.8423
34.6514
36.1424
37.3227
38.1966
38.7705
39.0536
39.0586
38.8013
38.3001
37.5756
36.6502
35.5475
34.2917
32.9071
31.4182
29.8484
28.2203
26.5554
24.8734
23.1927
21.5294
19.8982
18.3114
16.7798
15.312
13.9148
12.5936
11.3519
10.1917
9.11392
8.11822
7.20325
6.36682
5.60606
4.91752
4.29736
3.74142
3.24535
2.80473
2.41509
2.07206
1.77137
1.5089
1.28078
1.08332
0.913109
0.766977
0.642022
0.535597
0.44531
0.369012
0.304783
0.250919
0.205919
0.168465
0.137407
0.111747
0.0906253
0.0733018
0.059145
0.0476173
0.038264
0.0307018
0.0246095
0.0197186
0.0158061
0.0126874
0.0102103
0.00825002
0.0067044
0.00549041
0.00454072
0.00380096
0.0032274
0.00278501
0.00244587
0.00218775
0.00199309
0.00184803
0.0017417
0.00166559
0.00161311
0.00157915
0.0015598
0.00155211
0.00155386
0.0015634
0.00157987
0.00160657
4614.31
-549.927
-383.047
-124.844
-25.6374
7.31661
19.1943
24.6666
28.0727
30.6713
32.8247
34.6337
36.125
37.3059
38.1808
38.7559
39.0404
39.0471
38.7915
38.2922
37.5698
36.6464
35.5458
34.2919
32.9093
31.4222
29.8541
28.2276
26.5641
24.8833
23.2036
21.5412
19.9106
18.3243
16.793
15.3253
13.9282
12.6068
11.3648
10.2043
9.12606
8.12983
7.21427
6.37722
5.61579
4.92658
4.30573
3.74911
3.25238
2.81111
2.42085
2.07723
1.77597
1.51299
1.28438
1.08647
0.91585
0.769344
0.644051
0.537322
0.446764
0.370224
0.305782
0.251731
0.206567
0.168969
0.137787
0.112021
0.0908074
0.0734056
0.059182
0.0475978
0.0381966
0.0305942
0.024468
0.0195488
0.0156125
0.0124739
0.00998024
0.00800597
0.00644861
0.00522468
0.0042665
0.00351939
0.00293939
0.00249128
0.00214692
0.00188398
0.00168476
0.00153529
0.00142463
0.00134421
0.00128736
0.00124894
0.00122501
0.00121257
0.00120939
0.00121382
0.00122493
0.00124502
4614.31
-549.931
-383.054
-124.854
-25.6496
7.30223
19.178
24.6487
28.0535
30.6513
32.8041
34.613
36.1046
37.2861
38.1619
38.7383
39.0243
39.0328
38.7792
38.282
37.5618
36.6407
35.5423
34.2907
32.9103
31.4252
29.859
28.2343
26.5723
24.893
23.2144
21.553
19.9232
18.3375
16.8066
15.3392
13.9421
12.6206
11.3784
10.2175
9.13887
8.14211
7.22597
6.38826
5.62616
4.93625
4.31469
3.75737
3.25994
2.81798
2.42707
2.08282
1.78097
1.51744
1.28831
1.08993
0.918866
0.771963
0.646309
0.539256
0.448408
0.371611
0.30694
0.252688
0.207348
0.169598
0.138283
0.112402
0.0910908
0.073605
0.0593099
0.047665
0.0382126
0.0305671
0.0244047
0.0194552
0.0154936
0.012334
0.00982272
0.00783381
0.00626421
0.00503002
0.00406317
0.00330869
0.00272234
0.00226868
0.00191941
0.00165201
0.00144866
0.00129531
0.0011809
0.00109681
0.00103631
0.000994204
0.000966518
0.000950227
0.00094307
0.000943396
0.000950214
0.000965069
4614.31
-549.936
-383.062
-124.865
-25.6635
7.28578
19.1593
24.6282
28.0315
30.6282
32.7804
34.5891
36.0808
37.263
38.1398
38.7174
39.0052
39.0155
38.7641
38.2692
37.5514
36.6328
35.5369
34.2878
32.9098
31.427
29.8629
28.2402
26.58
24.9022
23.225
21.5648
19.9359
18.351
16.8206
15.3534
13.9565
12.635
11.3926
10.2314
9.15233
8.15506
7.23832
6.39996
5.63716
4.94653
4.32424
3.76617
3.26801
2.82534
2.43374
2.08883
1.78636
1.52224
1.29256
1.09367
0.922151
0.774825
0.648787
0.54139
0.450233
0.37316
0.308246
0.25378
0.208252
0.170339
0.138882
0.112879
0.0914622
0.0738865
0.0595149
0.0478051
0.0382979
0.0306063
0.0244053
0.0194234
0.015435
0.012253
0.00972309
0.00771874
0.00613631
0.00489144
0.00391567
0.00315369
0.00256099
0.00210187
0.00174784
0.00147623
0.00126909
0.00111223
0.000994535
0.000907278
0.000843685
0.000798512
0.000767736
0.000748304
0.000737934
0.000734963
0.000738355
0.000749087
4614.31
-549.942
-383.071
-124.878
-25.6795
7.26701
19.1381
24.6049
28.0065
30.602
32.7533
34.5617
36.0536
37.2363
38.1141
38.6932
38.9827
38.9951
38.746
38.2536
37.5384
36.6226
35.5294
34.283
32.9076
31.4274
29.8657
28.2452
26.587
24.9111
23.2354
21.5765
19.9487
18.3646
16.8348
15.3681
13.9714
12.65
11.4074
10.2459
9.16644
8.16866
7.25132
6.4123
5.64879
4.95741
4.33436
3.77552
3.2766
2.83319
2.44086
2.09526
1.79213
1.52739
1.29714
1.09771
0.925699
0.777924
0.65148
0.543716
0.45223
0.374865
0.309692
0.254998
0.20927
0.171182
0.139574
0.113441
0.0919115
0.0742399
0.0597865
0.0480074
0.0384418
0.0307009
0.0244587
0.0194424
0.0154253
0.0122194
0.00966982
0.00764914
0.00605323
0.00479719
0.00381215
0.00304246
0.0024433
0.00197872
0.00162002
0.00134437
0.00113365
0.00097358
0.000852925
0.000762896
0.000696648
0.000648886
0.000615546
0.000593542
0.000580569
0.000574949
0.000575609
0.0005831
4614.3
-549.949
-383.082
-124.893
-25.698
7.24547
19.114
24.5785
27.9783
30.5723
32.7227
34.5306
36.0226
37.2058
38.0847
38.6652
38.9566
38.9712
38.7246
38.235
37.5226
36.6098
35.5196
34.2762
32.9037
31.4263
29.8673
28.2492
26.5933
24.9193
23.2455
21.588
19.9615
18.3784
16.8494
15.3832
13.9868
12.6654
11.4228
10.261
9.18118
8.1829
7.26497
6.42529
5.66105
4.96891
4.34506
3.78543
3.28571
2.84152
2.44843
2.1021
1.79828
1.53289
1.30203
1.10204
0.929509
0.781259
0.654384
0.546231
0.454397
0.376721
0.311273
0.256336
0.210395
0.172121
0.140353
0.11408
0.0924312
0.0746572
0.0601168
0.0482638
0.0386357
0.0308424
0.0245562
0.0195032
0.0154556
0.0122244
0.0096539
0.00761595
0.00600579
0.00473802
0.00374331
0.00296563
0.00235984
0.00188973
0.00152637
0.00124675
0.0010326
0.000869517
0.000746157
0.00065365
0.000585083
0.000535109
0.000499618
0.000475492
0.0004604
0.000452647
0.000451131
0.00045608
4614.3
-549.959
-383.098
-124.912
-25.7207
7.21998
19.0862
24.5487
27.9466
30.539
32.6883
34.4957
35.9876
37.1714
38.0513
38.6334
38.9267
38.9437
38.6998
38.2131
37.5039
36.5942
35.5073
34.2672
32.8979
31.4236
29.8675
28.2521
26.5987
24.927
23.2551
21.5993
19.9742
18.3923
16.8641
15.3985
14.0025
12.6813
11.4387
10.2768
9.19654
8.19779
7.27927
6.43891
5.67393
4.981
4.35635
3.79588
3.29534
2.85033
2.45646
2.10937
1.80482
1.53874
1.30724
1.10666
0.933578
0.784827
0.657497
0.548932
0.456729
0.378724
0.312984
0.257789
0.211623
0.173152
0.141212
0.114791
0.0930154
0.0751327
0.0604995
0.0485679
0.0388734
0.0310242
0.0246912
0.0195992
0.0155191
0.0122611
0.00966835
0.0076121
0.00598689
0.00470676
0.00370191
0.0029159
0.00230325
0.00182747
0.00145941
0.00117583
0.000958334
0.00079236
0.000666469
0.0005717
0.00050107
0.000449172
0.000411854
0.000385958
0.000369129
0.000359655
0.000356405
0.000359365
4614.29
-549.981
-383.125
-124.942
-25.7521
7.18728
19.0528
24.5143
27.9108
30.5018
32.65
34.4567
35.9486
37.1329
38.0139
38.5975
38.893
38.9125
38.6714
38.1878
37.482
36.5758
35.4925
34.2559
32.8901
31.4191
29.8662
28.2538
26.6031
24.9339
23.2642
21.6103
19.9868
18.4062
16.879
15.4142
14.0187
12.6978
11.4551
10.2931
9.21252
8.2133
7.2942
6.45317
5.68744
4.99371
4.36821
3.8069
3.3055
2.85964
2.46494
2.11705
1.81175
1.54495
1.31277
1.11157
0.937908
0.788628
0.660817
0.551818
0.459225
0.380872
0.314822
0.259355
0.21295
0.17427
0.142148
0.115571
0.09366
0.0756617
0.06093
0.0489149
0.0391499
0.0312414
0.0248587
0.0197252
0.0156107
0.0123241
0.00970776
0.00763212
0.005991
0.00469783
0.00368232
0.00288759
0.00226781
0.00178619
0.00141331
0.00112575
0.000904913
0.000736123
0.000607817
0.00051094
0.000438435
0.000384833
0.000345934
0.000318545
0.00030028
0.000289408
0.000284775
0.000286184
4614.26
-550.047
-383.193
-125.001
-25.805
7.13867
19.0082
24.4722
27.8694
30.46
32.6074
34.4136
35.9055
37.0903
37.9723
38.5577
38.8553
38.8774
38.6394
38.1592
37.4569
36.5545
35.475
34.2422
32.8802
31.4128
29.8634
28.2543
26.6066
24.94
23.2727
21.621
19.9993
18.4201
16.8941
15.4302
14.0352
12.7146
11.4721
10.3099
9.22911
8.22945
7.30977
6.46806
5.70157
5.00702
4.38066
3.81846
3.31618
2.86944
2.47388
2.12516
1.81906
1.55151
1.31863
1.11677
0.942499
0.792663
0.664346
0.554889
0.461884
0.383164
0.316788
0.261032
0.214374
0.175473
0.143159
0.116416
0.0943618
0.0762411
0.0614051
0.0493014
0.0394616
0.0314901
0.0250547
0.0198772
0.0157261
0.0124093
0.009768
0.00767184
0.00601389
0.00470696
0.00368022
0.00287634
0.00224911
0.00176141
0.00138357
0.00109195
0.000867759
0.000696178
0.000565523
0.000466641
0.000392395
0.000337253
0.000296963
0.000268293
0.000248827
0.000236813
0.000231074
0.000231278
4614.14
-550.295
-383.415
-125.156
-25.9144
7.05319
18.9391
24.4141
27.8172
30.4103
32.5587
34.3652
35.8574
37.0431
37.9264
38.5136
38.8135
38.8385
38.6037
38.1271
37.4286
36.5302
35.4548
34.2262
32.8682
31.4048
29.8591
28.2534
26.609
24.9454
23.2807
21.6313
20.0115
18.434
16.9093
15.4463
14.0521
12.7319
11.4896
10.3274
9.24629
8.2462
7.32597
6.48358
5.71632
5.02093
4.39369
3.83059
3.32738
2.87973
2.48328
2.13369
1.82676
1.55843
1.32481
1.12225
0.947351
0.796931
0.668082
0.558143
0.464706
0.385598
0.318878
0.262819
0.215894
0.176759
0.144243
0.117323
0.0951186
0.0768685
0.0619221
0.0497247
0.0398056
0.0317676
0.0252763
0.0200523
0.0158625
0.0125136
0.00984593
0.00772806
0.00605232
0.00473088
0.00369231
0.00287882
0.00224377
0.00174975
0.00136677
0.00107096
0.000843355
0.000668971
0.000535996
0.000435171
0.000359276
0.000302712
0.000261173
0.000231386
0.000210902
0.000197947
0.000191323
0.000190595
4613.61
-551.297
-384.213
-125.621
-26.1756
6.88572
18.8185
24.3207
27.7398
30.3418
32.4949
34.3044
35.7988
36.9864
37.8719
38.4616
38.7645
38.7929
38.5619
38.0893
37.3952
36.5013
35.4305
34.2064
32.853
31.3939
29.8523
28.2506
26.6098
24.9495
23.2877
21.6409
20.0233
18.4476
16.9244
15.4626
14.0692
12.7495
11.5074
10.3452
9.26397
8.2635
7.34273
6.49967
5.73165
5.03541
4.40728
3.84324
3.33909
2.8905
2.49312
2.14264
1.83485
1.56569
1.3313
1.12803
0.952461
0.80143
0.672023
0.56158
0.467688
0.388174
0.321092
0.264714
0.217507
0.178127
0.145397
0.118293
0.0959286
0.0775418
0.062479
0.0501827
0.04018
0.0320716
0.0255214
0.0202482
0.0160175
0.0126348
0.00993916
0.00779836
0.00610386
0.0047671
0.00371608
0.00289247
0.00224925
0.0017486
0.00136027
0.00106014
0.000829035
0.000651807
0.000516508
0.000413771
0.000336286
0.000278384
0.000235701
0.00020492
0.000183561
0.000169824
0.00016249
0.000161046
4611.44
-555.199
-387.114
-127.111
-26.8558
6.54515
18.6065
24.1607
27.6044
30.2201
32.3821
34.1981
35.6978
36.8903
37.7805
38.3752
38.6834
38.7174
38.4926
38.0266
37.3393
36.4523
35.3884
34.1711
32.8242
31.3714
29.8357
28.2394
26.6036
24.9478
23.29
21.6466
20.0321
18.4588
16.9377
15.4775
14.0853
12.7665
11.525
10.363
9.28167
8.28095
7.35973
6.51607
5.74733
5.05028
4.42126
3.8563
3.35121
2.90167
2.50334
2.15194
1.84327
1.57327
1.33808
1.13407
0.957809
0.806143
0.676156
0.565187
0.470821
0.390883
0.323424
0.266711
0.21921
0.179573
0.146618
0.11932
0.0967889
0.0782588
0.0630735
0.0506732
0.0405827
0.0324002
0.0257879
0.0204629
0.0161892
0.0127708
0.0100458
0.00788089
0.00616663
0.00481375
0.00374963
0.00291541
0.0022636
0.00175603
0.00136213
0.00105751
0.000822804
0.000642669
0.000505022
0.00040038
0.000321339
0.000262155
0.000218406
0.000186728
0.000164604
0.000150211
0.000142308
0.000140321
4605.63
-568.068
-396.756
-131.728
-28.6636
5.85328
18.2723
23.9155
27.3681
29.9747
32.1276
33.9385
35.4376
36.6332
37.5299
38.1338
38.4539
38.502
38.2929
37.844
37.1745
36.3056
35.2597
34.0599
32.7297
31.2925
29.7712
28.188
26.5639
24.9184
23.2697
21.6341
20.0261
18.4584
16.9418
15.4853
14.0959
12.7793
11.5393
10.3784
9.29768
8.29721
7.37594
6.53199
5.76275
5.06505
4.43528
3.86948
3.36349
2.91304
2.5138
2.16149
1.85193
1.58108
1.34509
1.14032
0.963354
0.811038
0.680455
0.568944
0.474088
0.393711
0.32586
0.268801
0.220995
0.18109
0.147902
0.120401
0.0976957
0.0790159
0.0637027
0.0511938
0.0410112
0.0327513
0.026074
0.0206948
0.0163759
0.0129202
0.0101644
0.00797411
0.00623914
0.00486937
0.00379152
0.00294618
0.0022854
0.00177061
0.0013709
0.00106163
0.000823202
0.000640088
0.000500055
0.000393499
0.00031292
0.000252493
0.000207735
0.000175233
0.000152434
0.000137486
0.00012913
0.000126744
4636.11
-588.327
-420.243
-143.245
-32.7523
4.62565
17.8998
23.7158
27.134
29.6511
31.7102
33.4417
34.8823
36.0416
36.9224
37.528
37.8642
37.9398
37.7666
37.3593
36.7352
35.9134
34.9146
33.7606
32.474
31.0773
29.5931
28.0433
26.4486
24.8288
23.2021
21.5852
19.9927
18.4378
16.9315
15.4831
14.1001
12.7883
11.5518
10.3933
9.31424
8.31466
7.39372
6.54968
5.78002
5.08166
4.45106
3.88431
3.3773
2.92579
2.52548
2.17213
1.86155
1.58973
1.35283
1.1472
0.969443
0.816398
0.685151
0.573039
0.477643
0.396782
0.328503
0.271064
0.222924
0.182728
0.149287
0.121568
0.0986736
0.0798324
0.0643815
0.0517557
0.0414744
0.0331314
0.0263845
0.0209472
0.0165801
0.0130845
0.0102959
0.00807863
0.0063216
0.00493388
0.00384145
0.00298433
0.00231406
0.00179163
0.00138582
0.00107167
0.000829352
0.000643144
0.000500654
0.00039215
0.000310024
0.000248372
0.000202642
0.000169372
0.000145968
0.00013055
0.000121838
0.000119183
5490.33
-410.17
-411.914
-151.183
-36.8985
3.21507
17.6135
23.9227
27.6493
30.4177
32.6924
34.6018
36.1793
37.434
38.3713
38.9985
39.3261
39.3679
39.1409
38.6646
37.9606
37.052
35.963
34.7181
33.3423
31.8598
30.2944
28.6689
27.0045
25.3212
23.6371
21.9685
20.3301
18.7343
17.1919
15.7116
14.3006
12.9641
11.7059
10.5283
9.43245
8.41813
7.48424
6.62879
5.8491
5.14192
4.50354
3.92996
3.41694
2.96015
2.55522
2.1978
1.88367
1.60875
1.36914
1.16116
0.981358
0.826542
0.693764
0.580333
0.483802
0.401969
0.332859
0.274711
0.225969
0.185263
0.151391
0.123309
0.10011
0.0810132
0.0653496
0.0525468
0.0421188
0.0336546
0.0268079
0.0212887
0.0168545
0.0133042
0.0104711
0.00821788
0.00643176
0.00502062
0.00390941
0.00303726
0.00235499
0.00182304
0.00140968
0.00108956
0.000842541
0.00065264
0.000507258
0.000396494
0.00031261
0.000249595
0.000202816
0.000168745
0.00014474
0.000128886
0.000119886
0.000117104
)
;

boundaryField
{
    xmin
    {
        type            calculated;
        value           uniform 0;
    }
    xmax
    {
        type            calculated;
        value           nonuniform List<scalar> 
100
(
4804.04
-358.899
-360.425
-132.285
-32.2862
2.81319
15.4118
20.9324
24.1932
26.6155
28.6059
30.2766
31.6569
32.7547
33.5749
34.1237
34.4103
34.4469
34.2483
33.8316
33.2156
32.4205
31.4676
30.3784
29.1745
27.8773
26.5076
25.0853
23.6289
22.156
20.6824
19.2225
17.7888
16.3925
15.0429
13.7477
12.513
11.3436
10.2426
9.21229
8.2534
7.36587
6.54872
5.8002
5.11798
4.49919
3.94061
3.43873
2.98984
2.59015
2.23583
1.92309
1.64823
1.40767
1.19801
1.01602
0.858698
0.723234
0.607054
0.507801
0.423337
0.351733
0.291261
0.240382
0.197733
0.162115
0.132477
0.107905
0.0876062
0.0708969
0.0571912
0.0459888
0.0368644
0.0294582
0.0234674
0.0186381
0.0147583
0.0116518
0.00917294
0.00720143
0.00563866
0.004404
0.00343179
0.00266876
0.0020719
0.00160657
0.00124502
0.000965069
0.000749087
0.0005831
0.00045608
0.000359365
0.000286184
0.000231278
0.000190595
0.000161046
0.000140321
0.000126744
0.000119183
0.000117104
)
;
    }
    ymin
    {
        type            calculated;
        value           uniform 0;
    }
    ymax
    {
        type            calculated;
        value           nonuniform List<scalar> 
100
(
5490.33
-410.17
-411.914
-151.183
-36.8985
3.21507
17.6135
23.9227
27.6493
30.4177
32.6924
34.6018
36.1793
37.434
38.3713
38.9985
39.3261
39.3679
39.1409
38.6646
37.9606
37.052
35.963
34.7181
33.3423
31.8598
30.2944
28.6689
27.0045
25.3212
23.6371
21.9685
20.3301
18.7343
17.1919
15.7116
14.3006
12.9641
11.7059
10.5283
9.43245
8.41813
7.48424
6.62879
5.8491
5.14192
4.50354
3.92996
3.41694
2.96015
2.55522
2.1978
1.88367
1.60875
1.36914
1.16116
0.981358
0.826542
0.693764
0.580333
0.483802
0.401969
0.332859
0.274711
0.225969
0.185263
0.151391
0.123309
0.10011
0.0810132
0.0653496
0.0525468
0.0421188
0.0336546
0.0268079
0.0212887
0.0168545
0.0133042
0.0104711
0.00821788
0.00643176
0.00502062
0.00390941
0.00303726
0.00235499
0.00182304
0.00140968
0.00108956
0.000842541
0.00065264
0.000507258
0.000396494
0.00031261
0.000249595
0.000202816
0.000168745
0.00014474
0.000128886
0.000119886
0.000117104
)
;
    }
    frontAndBack
    {
        type            empty;
    }
}


// ************************************************************************* //
